trialnumber,blocknumber,trialtype,condition,RDK2display,cue,freq_attended,cue_onset_fr,cue_onset_t_est,cue_onset_t_meas,precue_frames,precue_times,postcue_frames,postcue_times,retention_frames,retention_times,eventtype,eventRDK,eventfreq,precue_eventnum,precue_eventid,precue_eventtype,precue_event_onset_fr,precue_event_onset_t_est,triggernum_cue,triggernum_retent,triggernum_event,event_response_type,event_response_RT,precue_event_response_type,precue_event_response_RT,triggernum_precue_event,participant,relevantcol,con1label,con2label,con3label
1,1,1,3,[1 2 4 5],1,23,865,1802.08333333333,NaN,864,1.8,912,1.9,480,1,2,1,23,0,NaN,NaN,NaN,NaN,30,31,36,hit,586.895990371704,noevent,NaN,,Pilot_CG_VP90,orange,cue_left_6t,cue_left,6t
2,1,1,5,[1 4],1,23,769,1602.08333333333,NaN,768,1.6,768,1.6,480,1,1,1,23,0,NaN,NaN,NaN,NaN,50,51,55,hit,713.161039352417,noevent,NaN,,Pilot_CG_VP90,orange,cue_left_3t,cue_left,3t
3,1,2,1,[1 3 4 6],1,23,961,2002.08333333333,NaN,960,2,528,1.1,480,1,1,1,23,0,NaN,NaN,NaN,NaN,10,11,15,hit,1135.23116111755,noevent,NaN,,Pilot_CG_VP90,orange,cue_left_3t3d,cue_left,3t_3d
4,1,2,6,[1 4],2,17,913,1902.08333333333,NaN,912,1.9,480,1,480,1,2,4,20,1,4,2,624,1.3,60,61,66,hit,809.122657775879,miss,NaN,82,Pilot_CG_VP90,orange,cue_right_3t,cue_right,3t
5,1,1,1,[1 3 4 6],1,23,961,2002.08333333333,NaN,960,2,912,1.9,480,1,1,1,23,0,NaN,NaN,NaN,NaN,10,11,15,hit,415.499305725098,noevent,NaN,,Pilot_CG_VP90,orange,cue_left_3t3d,cue_left,3t_3d
6,1,1,4,[1 2 4 5],2,17,961,2002.08333333333,NaN,960,2,720,1.5,480,1,1,5,26,0,NaN,NaN,NaN,NaN,40,41,45,hit,1270.90883255005,noevent,NaN,,Pilot_CG_VP90,orange,cue_right_6t,cue_right,6t
7,1,1,4,[1 2 4 5],2,17,817,1702.08333333333,NaN,816,1.7,960,2,480,1,1,5,26,0,NaN,NaN,NaN,NaN,40,41,45,error,1102.66070365906,noevent,NaN,,Pilot_CG_VP90,orange,cue_right_6t,cue_right,6t
8,1,1,3,[1 2 4 5],1,23,769,1602.08333333333,NaN,768,1.6,816,1.7,480,1,2,2,17,0,NaN,NaN,NaN,NaN,30,31,36,hit,585.316848754883,noevent,NaN,,Pilot_CG_VP90,orange,cue_left_6t,cue_left,6t
9,1,1,3,[1 2 4 5],1,23,865,1802.08333333333,NaN,864,1.8,960,2,480,1,1,2,17,0,NaN,NaN,NaN,NaN,30,31,35,hit,893.452119827271,noevent,NaN,,Pilot_CG_VP90,orange,cue_left_6t,cue_left,6t
10,1,1,6,[1 4],2,17,817,1702.08333333333,NaN,816,1.7,912,1.9,480,1,2,4,20,0,NaN,NaN,NaN,NaN,60,61,66,hit,668.381357192993,noevent,NaN,,Pilot_CG_VP90,orange,cue_right_3t,cue_right,3t
11,1,1,2,[1 3 4 6],2,17,961,2002.08333333333,NaN,960,2,912,1.9,480,1,1,4,20,0,NaN,NaN,NaN,NaN,20,21,25,hit,553.294277191162,noevent,NaN,,Pilot_CG_VP90,orange,cue_right_3t3d,cue_right,3t_3d
12,1,1,4,[1 2 4 5],2,17,769,1602.08333333333,NaN,768,1.6,720,1.5,480,1,1,4,20,0,NaN,NaN,NaN,NaN,40,41,45,error,1124.83563423157,noevent,NaN,,Pilot_CG_VP90,orange,cue_right_6t,cue_right,6t
13,1,1,3,[1 2 4 5],1,23,817,1702.08333333333,NaN,816,1.7,960,2,480,1,2,1,23,1,1,1,288,0.6,30,31,36,hit,830.259132385254,hit,819.426918029785,81,Pilot_CG_VP90,orange,cue_left_6t,cue_left,6t
14,1,1,6,[1 4],2,17,961,2002.08333333333,NaN,960,2,768,1.6,480,1,1,4,20,0,NaN,NaN,NaN,NaN,60,61,65,error,945.659780502319,noevent,NaN,,Pilot_CG_VP90,orange,cue_right_3t,cue_right,3t
15,1,1,4,[1 2 4 5],2,17,865,1802.08333333333,NaN,864,1.8,816,1.7,480,1,1,4,20,0,NaN,NaN,NaN,NaN,40,41,45,hit,574.677228927612,noevent,NaN,,Pilot_CG_VP90,orange,cue_right_6t,cue_right,6t
16,1,1,6,[1 4],2,17,865,1802.08333333333,NaN,864,1.8,912,1.9,480,1,2,4,20,0,NaN,NaN,NaN,NaN,60,61,66,hit,653.499412536621,noevent,NaN,,Pilot_CG_VP90,orange,cue_right_3t,cue_right,3t
17,1,1,6,[1 4],2,17,769,1602.08333333333,NaN,768,1.6,912,1.9,480,1,2,4,20,0,NaN,NaN,NaN,NaN,60,61,66,hit,521.023511886597,noevent,NaN,,Pilot_CG_VP90,orange,cue_right_3t,cue_right,3t
18,1,1,6,[1 4],2,17,721,1502.08333333333,NaN,720,1.5,720,1.5,480,1,2,4,20,0,NaN,NaN,NaN,NaN,60,61,66,hit,568.937540054321,noevent,NaN,,Pilot_CG_VP90,orange,cue_right_3t,cue_right,3t
19,1,1,5,[1 4],1,23,721,1502.08333333333,NaN,720,1.5,912,1.9,480,1,1,1,23,1,2,2,384,0.8,50,51,55,error,1305.83391189575,error,619.741153717041,82,Pilot_CG_VP90,orange,cue_left_3t,cue_left,3t
20,1,1,6,[1 4],2,17,769,1602.08333333333,NaN,768,1.6,960,2,480,1,1,4,20,0,NaN,NaN,NaN,NaN,60,61,65,hit,550.162935256958,noevent,NaN,,Pilot_CG_VP90,orange,cue_right_3t,cue_right,3t
21,1,1,6,[1 4],2,17,961,2002.08333333333,NaN,960,2,960,2,480,1,1,4,20,1,3,1,480,1,60,61,65,hit,931.924104690552,hit,904.92057800293,81,Pilot_CG_VP90,orange,cue_right_3t,cue_right,3t
22,1,2,6,[1 4],2,17,961,2002.08333333333,NaN,960,2,624,1.3,480,1,1,4,20,1,4,2,240,0.5,60,61,65,hit,550.31795501709,hit,671.367168426514,82,Pilot_CG_VP90,orange,cue_right_3t,cue_right,3t
23,1,2,5,[1 4],1,23,913,1902.08333333333,NaN,912,1.9,384,0.8,480,1,1,1,23,0,NaN,NaN,NaN,NaN,50,51,55,hit,681.920099258423,noevent,NaN,,Pilot_CG_VP90,orange,cue_left_3t,cue_left,3t
24,1,1,4,[1 2 4 5],2,17,865,1802.08333333333,NaN,864,1.8,912,1.9,480,1,1,5,26,0,NaN,NaN,NaN,NaN,40,41,45,hit,687.380838394165,noevent,NaN,,Pilot_CG_VP90,orange,cue_right_6t,cue_right,6t
25,1,1,3,[1 2 4 5],1,23,817,1702.08333333333,NaN,816,1.7,960,2,480,1,2,2,17,0,NaN,NaN,NaN,NaN,30,31,36,hit,970.87459564209,noevent,NaN,,Pilot_CG_VP90,orange,cue_left_6t,cue_left,6t
26,1,1,4,[1 2 4 5],2,17,961,2002.08333333333,NaN,960,2,864,1.8,480,1,2,5,26,0,NaN,NaN,NaN,NaN,40,41,46,hit,647.747945785522,noevent,NaN,,Pilot_CG_VP90,orange,cue_right_6t,cue_right,6t
27,1,1,1,[1 3 4 6],1,23,721,1502.08333333333,NaN,720,1.5,960,2,480,1,2,1,23,1,4,2,432,0.9,10,11,16,hit,657.322645187378,miss,NaN,82,Pilot_CG_VP90,orange,cue_left_3t3d,cue_left,3t_3d
28,1,1,5,[1 4],1,23,817,1702.08333333333,NaN,816,1.7,912,1.9,480,1,1,1,23,0,NaN,NaN,NaN,NaN,50,51,55,hit,670.805835723877,noevent,NaN,,Pilot_CG_VP90,orange,cue_left_3t,cue_left,3t
29,1,2,6,[1 4],2,17,769,1602.08333333333,NaN,768,1.6,384,0.8,480,1,2,4,20,0,NaN,NaN,NaN,NaN,60,61,66,hit,486.811256408691,noevent,NaN,,Pilot_CG_VP90,orange,cue_right_3t,cue_right,3t
30,1,2,3,[1 2 4 5],1,23,865,1802.08333333333,NaN,864,1.8,576,1.2,480,1,1,2,17,0,NaN,NaN,NaN,NaN,30,31,35,error,890.097856521606,noevent,NaN,,Pilot_CG_VP90,orange,cue_left_6t,cue_left,6t
31,2,1,3,[1 2 4 5],1,23,769,1602.08333333333,NaN,768,1.6,912,1.9,480,1,2,2,17,1,4,2,144,0.3,30,31,36,hit,820.157289505005,hit,793.164205551147,82,Pilot_CG_VP90,orange,cue_left_6t,cue_left,6t
32,2,1,2,[1 3 4 6],2,17,865,1802.08333333333,NaN,864,1.8,720,1.5,480,1,2,4,20,0,NaN,NaN,NaN,NaN,20,21,26,hit,626.953792572021,noevent,NaN,,Pilot_CG_VP90,orange,cue_right_3t3d,cue_right,3t_3d
33,2,1,5,[1 4],1,23,769,1602.08333333333,NaN,768,1.6,768,1.6,480,1,1,1,23,0,NaN,NaN,NaN,NaN,50,51,55,hit,574.637937545776,noevent,NaN,,Pilot_CG_VP90,orange,cue_left_3t,cue_left,3t
34,2,1,6,[1 4],2,17,721,1502.08333333333,NaN,720,1.5,768,1.6,480,1,1,4,20,0,NaN,NaN,NaN,NaN,60,61,65,hit,462.658786773682,noevent,NaN,,Pilot_CG_VP90,orange,cue_right_3t,cue_right,3t
35,2,1,2,[1 3 4 6],2,17,769,1602.08333333333,NaN,768,1.6,816,1.7,480,1,2,4,20,0,NaN,NaN,NaN,NaN,20,21,26,hit,599.788379669189,noevent,NaN,,Pilot_CG_VP90,orange,cue_right_3t3d,cue_right,3t_3d
36,2,1,2,[1 3 4 6],2,17,817,1702.08333333333,NaN,816,1.7,816,1.7,480,1,1,4,20,0,NaN,NaN,NaN,NaN,20,21,25,error,714.715337753296,noevent,NaN,,Pilot_CG_VP90,orange,cue_right_3t3d,cue_right,3t_3d
37,2,1,6,[1 4],2,17,961,2002.08333333333,NaN,960,2,912,1.9,480,1,1,4,20,0,NaN,NaN,NaN,NaN,60,61,65,hit,464.792823791504,noevent,NaN,,Pilot_CG_VP90,orange,cue_right_3t,cue_right,3t
38,2,1,1,[1 3 4 6],1,23,769,1602.08333333333,NaN,768,1.6,912,1.9,480,1,2,1,23,0,NaN,NaN,NaN,NaN,10,11,16,hit,584.834814071655,noevent,NaN,,Pilot_CG_VP90,orange,cue_left_3t3d,cue_left,3t_3d
39,2,1,6,[1 4],2,17,913,1902.08333333333,NaN,912,1.9,816,1.7,480,1,1,4,20,0,NaN,NaN,NaN,NaN,60,61,65,hit,498.177671432495,noevent,NaN,,Pilot_CG_VP90,orange,cue_right_3t,cue_right,3t
40,2,1,5,[1 4],1,23,817,1702.08333333333,NaN,816,1.7,768,1.6,480,1,1,1,23,0,NaN,NaN,NaN,NaN,50,51,55,hit,539.013576507568,noevent,NaN,,Pilot_CG_VP90,orange,cue_left_3t,cue_left,3t
41,2,1,2,[1 3 4 6],2,17,769,1602.08333333333,NaN,768,1.6,912,1.9,480,1,2,4,20,1,2,2,384,0.8,20,21,26,hit,641.379833221436,hit,646.527004241943,82,Pilot_CG_VP90,orange,cue_right_3t3d,cue_right,3t_3d
42,2,1,4,[1 2 4 5],2,17,817,1702.08333333333,NaN,816,1.7,960,2,480,1,1,5,26,1,2,2,288,0.6,40,41,45,hit,878.405141830444,hit,601.581716537475,82,Pilot_CG_VP90,orange,cue_right_6t,cue_right,6t
43,2,1,2,[1 3 4 6],2,17,769,1602.08333333333,NaN,768,1.6,912,1.9,480,1,1,4,20,1,1,1,288,0.6,20,21,25,hit,835.767507553101,error,662.16459274292,81,Pilot_CG_VP90,orange,cue_right_3t3d,cue_right,3t_3d
44,2,1,1,[1 3 4 6],1,23,865,1802.08333333333,NaN,864,1.8,864,1.8,480,1,2,1,23,0,NaN,NaN,NaN,NaN,10,11,16,hit,819.358253479004,noevent,NaN,,Pilot_CG_VP90,orange,cue_left_3t3d,cue_left,3t_3d
45,2,1,4,[1 2 4 5],2,17,913,1902.08333333333,NaN,912,1.9,960,2,480,1,1,4,20,0,NaN,NaN,NaN,NaN,40,41,45,hit,611.142492294312,noevent,NaN,,Pilot_CG_VP90,orange,cue_right_6t,cue_right,6t
46,2,1,5,[1 4],1,23,865,1802.08333333333,NaN,864,1.8,864,1.8,480,1,2,1,23,0,NaN,NaN,NaN,NaN,50,51,56,hit,548.253679275513,noevent,NaN,,Pilot_CG_VP90,orange,cue_left_3t,cue_left,3t
47,2,1,6,[1 4],2,17,769,1602.08333333333,NaN,768,1.6,912,1.9,480,1,2,4,20,0,NaN,NaN,NaN,NaN,60,61,66,hit,698.221206665039,noevent,NaN,,Pilot_CG_VP90,orange,cue_right_3t,cue_right,3t
48,2,1,1,[1 3 4 6],1,23,865,1802.08333333333,NaN,864,1.8,960,2,480,1,1,1,23,0,NaN,NaN,NaN,NaN,10,11,15,error,868.77269744873,noevent,NaN,,Pilot_CG_VP90,orange,cue_left_3t3d,cue_left,3t_3d
49,2,1,6,[1 4],2,17,769,1602.08333333333,NaN,768,1.6,912,1.9,480,1,1,4,20,0,NaN,NaN,NaN,NaN,60,61,65,hit,588.765382766724,noevent,NaN,,Pilot_CG_VP90,orange,cue_right_3t,cue_right,3t
50,2,1,2,[1 3 4 6],2,17,769,1602.08333333333,NaN,768,1.6,864,1.8,480,1,2,4,20,1,4,2,192,0.4,20,21,26,hit,732.059097290039,miss,NaN,82,Pilot_CG_VP90,orange,cue_right_3t3d,cue_right,3t_3d
51,2,1,2,[1 3 4 6],2,17,817,1702.08333333333,NaN,816,1.7,720,1.5,480,1,2,4,20,1,2,2,336,0.7,20,21,26,hit,873.339462280273,hit,784.538078308105,82,Pilot_CG_VP90,orange,cue_right_3t3d,cue_right,3t_3d
52,2,2,3,[1 2 4 5],1,23,817,1702.08333333333,NaN,816,1.7,672,1.4,480,1,1,1,23,0,NaN,NaN,NaN,NaN,30,31,35,hit,560.737276077271,noevent,NaN,,Pilot_CG_VP90,orange,cue_left_6t,cue_left,6t
53,2,2,4,[1 2 4 5],2,17,913,1902.08333333333,NaN,912,1.9,432,0.9,480,1,2,5,26,0,NaN,NaN,NaN,NaN,40,41,46,hit,641.653728485107,noevent,NaN,,Pilot_CG_VP90,orange,cue_right_6t,cue_right,6t
54,2,1,3,[1 2 4 5],1,23,769,1602.08333333333,NaN,768,1.6,768,1.6,480,1,2,2,17,0,NaN,NaN,NaN,NaN,30,31,36,hit,628.644990921021,noevent,NaN,,Pilot_CG_VP90,orange,cue_left_6t,cue_left,6t
55,2,1,1,[1 3 4 6],1,23,817,1702.08333333333,NaN,816,1.7,864,1.8,480,1,1,1,23,0,NaN,NaN,NaN,NaN,10,11,15,hit,696.060180664062,noevent,NaN,,Pilot_CG_VP90,orange,cue_left_3t3d,cue_left,3t_3d
56,2,1,5,[1 4],1,23,721,1502.08333333333,NaN,720,1.5,720,1.5,480,1,2,1,23,1,4,2,240,0.5,50,51,56,hit,742.952346801758,hit,741.886377334595,82,Pilot_CG_VP90,orange,cue_left_3t,cue_left,3t
57,2,2,5,[1 4],1,23,817,1702.08333333333,NaN,816,1.7,672,1.4,480,1,1,1,23,0,NaN,NaN,NaN,NaN,50,51,55,error,464.878702163696,noevent,NaN,,Pilot_CG_VP90,orange,cue_left_3t,cue_left,3t
58,2,1,4,[1 2 4 5],2,17,769,1602.08333333333,NaN,768,1.6,816,1.7,480,1,2,4,20,0,NaN,NaN,NaN,NaN,40,41,46,hit,820.216608047485,noevent,NaN,,Pilot_CG_VP90,orange,cue_right_6t,cue_right,6t
59,2,1,4,[1 2 4 5],2,17,817,1702.08333333333,NaN,816,1.7,960,2,480,1,2,4,20,0,NaN,NaN,NaN,NaN,40,41,46,hit,692.813920974731,noevent,NaN,,Pilot_CG_VP90,orange,cue_right_6t,cue_right,6t
60,2,1,2,[1 3 4 6],2,17,961,2002.08333333333,NaN,960,2,768,1.6,480,1,1,4,20,0,NaN,NaN,NaN,NaN,20,21,25,hit,478.8733959198,noevent,NaN,,Pilot_CG_VP90,orange,cue_right_3t3d,cue_right,3t_3d
61,3,1,3,[1 2 4 5],1,23,769,1602.08333333333,NaN,768,1.6,768,1.6,480,1,1,1,23,0,NaN,NaN,NaN,NaN,30,31,35,hit,1317.60911941528,noevent,NaN,,Pilot_CG_VP90,orange,cue_left_6t,cue_left,6t
62,3,1,2,[1 3 4 6],2,17,769,1602.08333333333,NaN,768,1.6,768,1.6,480,1,1,4,20,0,NaN,NaN,NaN,NaN,20,21,25,hit,450.348901748657,noevent,NaN,,Pilot_CG_VP90,orange,cue_right_3t3d,cue_right,3t_3d
63,3,1,5,[1 4],1,23,961,2002.08333333333,NaN,960,2,768,1.6,480,1,1,1,23,0,NaN,NaN,NaN,NaN,50,51,55,hit,448.087120056152,noevent,NaN,,Pilot_CG_VP90,orange,cue_left_3t,cue_left,3t
64,3,1,6,[1 4],2,17,721,1502.08333333333,NaN,720,1.5,720,1.5,480,1,2,4,20,0,NaN,NaN,NaN,NaN,60,61,66,hit,604.831218719482,noevent,NaN,,Pilot_CG_VP90,orange,cue_right_3t,cue_right,3t
65,3,1,4,[1 2 4 5],2,17,721,1502.08333333333,NaN,720,1.5,768,1.6,480,1,1,5,26,0,NaN,NaN,NaN,NaN,40,41,45,hit,708.373212814331,noevent,NaN,,Pilot_CG_VP90,orange,cue_right_6t,cue_right,6t
66,3,1,5,[1 4],1,23,769,1602.08333333333,NaN,768,1.6,816,1.7,480,1,2,1,23,0,NaN,NaN,NaN,NaN,50,51,56,hit,691.83988571167,noevent,NaN,,Pilot_CG_VP90,orange,cue_left_3t,cue_left,3t
67,3,1,6,[1 4],2,17,721,1502.08333333333,NaN,720,1.5,864,1.8,480,1,1,4,20,0,NaN,NaN,NaN,NaN,60,61,65,hit,576.717567443848,noevent,NaN,,Pilot_CG_VP90,orange,cue_right_3t,cue_right,3t
68,3,1,6,[1 4],2,17,721,1502.08333333333,NaN,720,1.5,816,1.7,480,1,1,4,20,1,2,2,240,0.5,60,61,65,hit,567.267942428589,hit,659.419536590576,82,Pilot_CG_VP90,orange,cue_right_3t,cue_right,3t
69,3,1,2,[1 3 4 6],2,17,721,1502.08333333333,NaN,720,1.5,864,1.8,480,1,1,4,20,0,NaN,NaN,NaN,NaN,20,21,25,hit,646.268796920776,noevent,NaN,,Pilot_CG_VP90,orange,cue_right_3t3d,cue_right,3t_3d
70,3,1,4,[1 2 4 5],2,17,769,1602.08333333333,NaN,768,1.6,864,1.8,480,1,2,5,26,1,1,1,480,1,40,41,46,hit,807.233190536499,hit,826.187372207642,81,Pilot_CG_VP90,orange,cue_right_6t,cue_right,6t
71,3,1,2,[1 3 4 6],2,17,817,1702.08333333333,NaN,816,1.7,912,1.9,480,1,2,4,20,0,NaN,NaN,NaN,NaN,20,21,26,hit,783.402109146118,noevent,NaN,,Pilot_CG_VP90,orange,cue_right_3t3d,cue_right,3t_3d
72,3,2,5,[1 4],1,23,817,1702.08333333333,NaN,816,1.7,432,0.9,480,1,2,1,23,0,NaN,NaN,NaN,NaN,50,51,56,hit,658.599519729615,noevent,NaN,,Pilot_CG_VP90,orange,cue_left_3t,cue_left,3t
73,3,2,4,[1 2 4 5],2,17,769,1602.08333333333,NaN,768,1.6,576,1.2,480,1,1,4,20,0,NaN,NaN,NaN,NaN,40,41,45,hit,1141.11847877502,noevent,NaN,,Pilot_CG_VP90,orange,cue_right_6t,cue_right,6t
74,3,2,1,[1 3 4 6],1,23,769,1602.08333333333,NaN,768,1.6,624,1.3,480,1,2,1,23,0,NaN,NaN,NaN,NaN,10,11,16,hit,700.201845169067,noevent,NaN,,Pilot_CG_VP90,orange,cue_left_3t3d,cue_left,3t_3d
75,3,1,5,[1 4],1,23,961,2002.08333333333,NaN,960,2,720,1.5,480,1,1,1,23,0,NaN,NaN,NaN,NaN,50,51,55,hit,565.79065322876,noevent,NaN,,Pilot_CG_VP90,orange,cue_left_3t,cue_left,3t
76,3,1,5,[1 4],1,23,769,1602.08333333333,NaN,768,1.6,768,1.6,480,1,2,1,23,0,NaN,NaN,NaN,NaN,50,51,56,hit,650.813865661621,noevent,NaN,,Pilot_CG_VP90,orange,cue_left_3t,cue_left,3t
77,3,1,1,[1 3 4 6],1,23,913,1902.08333333333,NaN,912,1.9,960,2,480,1,2,1,23,0,NaN,NaN,NaN,NaN,10,11,16,hit,646.568155288696,noevent,NaN,,Pilot_CG_VP90,orange,cue_left_3t3d,cue_left,3t_3d
78,3,1,6,[1 4],2,17,769,1602.08333333333,NaN,768,1.6,960,2,480,1,2,4,20,1,1,1,240,0.5,60,61,66,hit,436.375284194946,hit,888.498067855835,81,Pilot_CG_VP90,orange,cue_right_3t,cue_right,3t
79,3,2,2,[1 3 4 6],2,17,769,1602.08333333333,NaN,768,1.6,528,1.1,480,1,2,4,20,0,NaN,NaN,NaN,NaN,20,21,26,hit,617.742347717285,noevent,NaN,,Pilot_CG_VP90,orange,cue_right_3t3d,cue_right,3t_3d
80,3,1,4,[1 2 4 5],2,17,865,1802.08333333333,NaN,864,1.8,960,2,480,1,2,5,26,0,NaN,NaN,NaN,NaN,40,41,46,hit,649.45240020752,noevent,NaN,,Pilot_CG_VP90,orange,cue_right_6t,cue_right,6t
81,3,1,2,[1 3 4 6],2,17,865,1802.08333333333,NaN,864,1.8,912,1.9,480,1,2,4,20,1,2,2,384,0.8,20,21,26,hit,807.38787651062,hit,867.381763458252,82,Pilot_CG_VP90,orange,cue_right_3t3d,cue_right,3t_3d
82,3,1,6,[1 4],2,17,769,1602.08333333333,NaN,768,1.6,768,1.6,480,1,1,4,20,1,2,2,288,0.6,60,61,65,hit,954.950380325317,hit,869.082355499267,82,Pilot_CG_VP90,orange,cue_right_3t,cue_right,3t
83,3,1,3,[1 2 4 5],1,23,817,1702.08333333333,NaN,816,1.7,816,1.7,480,1,1,1,23,1,2,2,240,0.5,30,31,35,hit,1015.34161567688,hit,883.169889450073,82,Pilot_CG_VP90,orange,cue_left_6t,cue_left,6t
84,3,1,4,[1 2 4 5],2,17,865,1802.08333333333,NaN,864,1.8,864,1.8,480,1,2,4,20,1,3,1,192,0.4,40,41,46,hit,944.478893280029,miss,NaN,81,Pilot_CG_VP90,orange,cue_right_6t,cue_right,6t
85,3,1,4,[1 2 4 5],2,17,721,1502.08333333333,NaN,720,1.5,960,2,480,1,2,5,26,0,NaN,NaN,NaN,NaN,40,41,46,hit,572.569847106934,noevent,NaN,,Pilot_CG_VP90,orange,cue_right_6t,cue_right,6t
86,3,2,4,[1 2 4 5],2,17,865,1802.08333333333,NaN,864,1.8,624,1.3,480,1,1,5,26,0,NaN,NaN,NaN,NaN,40,41,45,hit,917.21453666687,noevent,NaN,,Pilot_CG_VP90,orange,cue_right_6t,cue_right,6t
87,3,2,2,[1 3 4 6],2,17,865,1802.08333333333,NaN,864,1.8,384,0.8,480,1,2,4,20,0,NaN,NaN,NaN,NaN,20,21,26,hit,544.965171813965,noevent,NaN,,Pilot_CG_VP90,orange,cue_right_3t3d,cue_right,3t_3d
88,3,1,5,[1 4],1,23,817,1702.08333333333,NaN,816,1.7,960,2,480,1,1,1,23,0,NaN,NaN,NaN,NaN,50,51,55,hit,635.010766983032,noevent,NaN,,Pilot_CG_VP90,orange,cue_left_3t,cue_left,3t
89,3,1,4,[1 2 4 5],2,17,721,1502.08333333333,NaN,720,1.5,864,1.8,480,1,2,4,20,0,NaN,NaN,NaN,NaN,40,41,46,hit,918.261480331421,noevent,NaN,,Pilot_CG_VP90,orange,cue_right_6t,cue_right,6t
90,3,1,4,[1 2 4 5],2,17,721,1502.08333333333,NaN,720,1.5,864,1.8,480,1,2,4,20,0,NaN,NaN,NaN,NaN,40,41,46,hit,689.244222640991,noevent,NaN,,Pilot_CG_VP90,orange,cue_right_6t,cue_right,6t
91,4,1,1,[1 3 4 6],1,23,817,1702.08333333333,NaN,816,1.7,720,1.5,480,1,2,1,23,1,4,2,336,0.7,10,11,16,hit,572.715330123901,hit,748.77552986145,82,Pilot_CG_VP90,orange,cue_left_3t3d,cue_left,3t_3d
92,4,1,1,[1 3 4 6],1,23,721,1502.08333333333,NaN,720,1.5,912,1.9,480,1,1,1,23,1,3,1,288,0.6,10,11,15,hit,735.504722595215,hit,773.48747253418,81,Pilot_CG_VP90,orange,cue_left_3t3d,cue_left,3t_3d
93,4,1,3,[1 2 4 5],1,23,769,1602.08333333333,NaN,768,1.6,864,1.8,480,1,1,1,23,0,NaN,NaN,NaN,NaN,30,31,35,hit,550.650453567505,noevent,NaN,,Pilot_CG_VP90,orange,cue_left_6t,cue_left,6t
94,4,1,6,[1 4],2,17,865,1802.08333333333,NaN,864,1.8,768,1.6,480,1,2,4,20,0,NaN,NaN,NaN,NaN,60,61,66,hit,418.152904510498,noevent,NaN,,Pilot_CG_VP90,orange,cue_right_3t,cue_right,3t
95,4,1,5,[1 4],1,23,961,2002.08333333333,NaN,960,2,864,1.8,480,1,1,1,23,0,NaN,NaN,NaN,NaN,50,51,55,hit,565.037202835083,noevent,NaN,,Pilot_CG_VP90,orange,cue_left_3t,cue_left,3t
96,4,1,1,[1 3 4 6],1,23,721,1502.08333333333,NaN,720,1.5,816,1.7,480,1,1,1,23,0,NaN,NaN,NaN,NaN,10,11,15,hit,441.260385513306,noevent,NaN,,Pilot_CG_VP90,orange,cue_left_3t3d,cue_left,3t_3d
97,4,1,4,[1 2 4 5],2,17,961,2002.08333333333,NaN,960,2,864,1.8,480,1,1,5,26,1,4,2,480,1,40,41,45,hit,1028.52745056152,hit,850.480079650879,82,Pilot_CG_VP90,orange,cue_right_6t,cue_right,6t
98,4,1,4,[1 2 4 5],2,17,865,1802.08333333333,NaN,864,1.8,912,1.9,480,1,1,4,20,0,NaN,NaN,NaN,NaN,40,41,45,error,940.167713165283,noevent,NaN,,Pilot_CG_VP90,orange,cue_right_6t,cue_right,6t
99,4,1,3,[1 2 4 5],1,23,769,1602.08333333333,NaN,768,1.6,768,1.6,480,1,2,2,17,1,1,1,192,0.4,30,31,36,hit,612.130928039551,hit,762.173986434937,81,Pilot_CG_VP90,orange,cue_left_6t,cue_left,6t
100,4,1,2,[1 3 4 6],2,17,913,1902.08333333333,NaN,912,1.9,960,2,480,1,2,4,20,1,1,1,144,0.3,20,21,26,hit,552.445030212402,hit,745.380353927612,81,Pilot_CG_VP90,orange,cue_right_3t3d,cue_right,3t_3d
101,4,1,6,[1 4],2,17,865,1802.08333333333,NaN,864,1.8,768,1.6,480,1,2,4,20,0,NaN,NaN,NaN,NaN,60,61,66,hit,647.962665557861,noevent,NaN,,Pilot_CG_VP90,orange,cue_right_3t,cue_right,3t
102,4,1,4,[1 2 4 5],2,17,721,1502.08333333333,NaN,720,1.5,768,1.6,480,1,1,4,20,0,NaN,NaN,NaN,NaN,40,41,45,error,1210.96458435059,noevent,NaN,,Pilot_CG_VP90,orange,cue_right_6t,cue_right,6t
103,4,1,5,[1 4],1,23,721,1502.08333333333,NaN,720,1.5,816,1.7,480,1,1,1,23,1,1,1,432,0.9,50,51,55,hit,599.208879470825,hit,871.136999130249,81,Pilot_CG_VP90,orange,cue_left_3t,cue_left,3t
104,4,1,3,[1 2 4 5],1,23,913,1902.08333333333,NaN,912,1.9,720,1.5,480,1,1,1,23,0,NaN,NaN,NaN,NaN,30,31,35,hit,699.857568740845,noevent,NaN,,Pilot_CG_VP90,orange,cue_left_6t,cue_left,6t
105,4,1,1,[1 3 4 6],1,23,817,1702.08333333333,NaN,816,1.7,912,1.9,480,1,2,1,23,0,NaN,NaN,NaN,NaN,10,11,16,hit,380.804443359375,noevent,NaN,,Pilot_CG_VP90,orange,cue_left_3t3d,cue_left,3t_3d
106,4,1,6,[1 4],2,17,865,1802.08333333333,NaN,864,1.8,864,1.8,480,1,1,4,20,0,NaN,NaN,NaN,NaN,60,61,65,hit,635.308647155762,noevent,NaN,,Pilot_CG_VP90,orange,cue_right_3t,cue_right,3t
107,4,1,6,[1 4],2,17,721,1502.08333333333,NaN,720,1.5,720,1.5,480,1,1,4,20,0,NaN,NaN,NaN,NaN,60,61,65,hit,588.533639907837,noevent,NaN,,Pilot_CG_VP90,orange,cue_right_3t,cue_right,3t
108,4,1,1,[1 3 4 6],1,23,865,1802.08333333333,NaN,864,1.8,864,1.8,480,1,2,1,23,1,4,2,336,0.7,10,11,16,error,841.495656967163,hit,729.611206054688,82,Pilot_CG_VP90,orange,cue_left_3t3d,cue_left,3t_3d
109,4,2,5,[1 4],1,23,721,1502.08333333333,NaN,720,1.5,384,0.8,480,1,2,1,23,0,NaN,NaN,NaN,NaN,50,51,56,hit,709.703636169434,noevent,NaN,,Pilot_CG_VP90,orange,cue_left_3t,cue_left,3t
110,4,2,6,[1 4],2,17,769,1602.08333333333,NaN,768,1.6,528,1.1,480,1,2,4,20,0,NaN,NaN,NaN,NaN,60,61,66,hit,644.72393989563,noevent,NaN,,Pilot_CG_VP90,orange,cue_right_3t,cue_right,3t
111,4,1,1,[1 3 4 6],1,23,865,1802.08333333333,NaN,864,1.8,912,1.9,480,1,2,1,23,0,NaN,NaN,NaN,NaN,10,11,16,hit,502.666759490967,noevent,NaN,,Pilot_CG_VP90,orange,cue_left_3t3d,cue_left,3t_3d
112,4,1,3,[1 2 4 5],1,23,865,1802.08333333333,NaN,864,1.8,912,1.9,480,1,1,1,23,1,1,1,432,0.9,30,31,35,hit,704.346466064453,hit,676.529264450073,81,Pilot_CG_VP90,orange,cue_left_6t,cue_left,6t
113,4,1,4,[1 2 4 5],2,17,865,1802.08333333333,NaN,864,1.8,816,1.7,480,1,1,4,20,0,NaN,NaN,NaN,NaN,40,41,45,hit,889.852523803711,noevent,NaN,,Pilot_CG_VP90,orange,cue_right_6t,cue_right,6t
114,4,1,5,[1 4],1,23,865,1802.08333333333,NaN,864,1.8,912,1.9,480,1,1,1,23,1,1,1,192,0.4,50,51,55,hit,527.981090545654,error,655.05108833313,81,Pilot_CG_VP90,orange,cue_left_3t,cue_left,3t
115,4,2,3,[1 2 4 5],1,23,913,1902.08333333333,NaN,912,1.9,480,1,480,1,1,1,23,1,4,2,528,1.1,30,31,35,hit,734.507179260254,hit,831.616067886353,82,Pilot_CG_VP90,orange,cue_left_6t,cue_left,6t
116,4,2,3,[1 2 4 5],1,23,865,1802.08333333333,NaN,864,1.8,528,1.1,480,1,1,2,17,1,2,2,576,1.2,30,31,35,hit,1068.77765655518,miss,NaN,82,Pilot_CG_VP90,orange,cue_left_6t,cue_left,6t
117,4,1,1,[1 3 4 6],1,23,913,1902.08333333333,NaN,912,1.9,864,1.8,480,1,2,1,23,0,NaN,NaN,NaN,NaN,10,11,16,hit,675.451564788818,noevent,NaN,,Pilot_CG_VP90,orange,cue_left_3t3d,cue_left,3t_3d
118,4,1,1,[1 3 4 6],1,23,961,2002.08333333333,NaN,960,2,720,1.5,480,1,2,1,23,1,4,2,240,0.5,10,11,16,hit,708.188533782959,hit,858.258962631226,82,Pilot_CG_VP90,orange,cue_left_3t3d,cue_left,3t_3d
119,4,1,1,[1 3 4 6],1,23,961,2002.08333333333,NaN,960,2,768,1.6,480,1,1,1,23,0,NaN,NaN,NaN,NaN,10,11,15,hit,548.322343826294,noevent,NaN,,Pilot_CG_VP90,orange,cue_left_3t3d,cue_left,3t_3d
120,4,1,3,[1 2 4 5],1,23,913,1902.08333333333,NaN,912,1.9,864,1.8,480,1,2,2,17,0,NaN,NaN,NaN,NaN,30,31,36,hit,629.359531402588,noevent,NaN,,Pilot_CG_VP90,orange,cue_left_6t,cue_left,6t
121,5,1,2,[1 3 4 6],2,17,769,1602.08333333333,NaN,768,1.6,864,1.8,480,1,2,4,20,0,NaN,NaN,NaN,NaN,20,21,26,error,996.490097045898,noevent,NaN,,Pilot_CG_VP90,orange,cue_right_3t3d,cue_right,3t_3d
122,5,1,2,[1 3 4 6],2,17,817,1702.08333333333,NaN,816,1.7,768,1.6,480,1,2,4,20,0,NaN,NaN,NaN,NaN,20,21,26,error,603.385639190674,noevent,NaN,,Pilot_CG_VP90,orange,cue_right_3t3d,cue_right,3t_3d
123,5,1,1,[1 3 4 6],1,23,865,1802.08333333333,NaN,864,1.8,912,1.9,480,1,2,1,23,1,3,1,384,0.8,10,11,16,hit,825.79927444458,hit,930.854272842407,81,Pilot_CG_VP90,orange,cue_left_3t3d,cue_left,3t_3d
124,5,1,4,[1 2 4 5],2,17,865,1802.08333333333,NaN,864,1.8,864,1.8,480,1,2,4,20,0,NaN,NaN,NaN,NaN,40,41,46,hit,624.322319030762,noevent,NaN,,Pilot_CG_VP90,orange,cue_right_6t,cue_right,6t
125,5,1,5,[1 4],1,23,817,1702.08333333333,NaN,816,1.7,720,1.5,480,1,2,1,23,0,NaN,NaN,NaN,NaN,50,51,56,hit,544.462728500366,noevent,NaN,,Pilot_CG_VP90,orange,cue_left_3t,cue_left,3t
126,5,1,4,[1 2 4 5],2,17,817,1702.08333333333,NaN,816,1.7,768,1.6,480,1,2,5,26,0,NaN,NaN,NaN,NaN,40,41,46,hit,710.976314544678,noevent,NaN,,Pilot_CG_VP90,orange,cue_right_6t,cue_right,6t
127,5,1,3,[1 2 4 5],1,23,769,1602.08333333333,NaN,768,1.6,912,1.9,480,1,1,2,17,0,NaN,NaN,NaN,NaN,30,31,35,error,816.285610198975,noevent,NaN,,Pilot_CG_VP90,orange,cue_left_6t,cue_left,6t
128,5,2,5,[1 4],1,23,961,2002.08333333333,NaN,960,2,624,1.3,480,1,1,1,23,0,NaN,NaN,NaN,NaN,50,51,55,hit,418.69683265686,noevent,NaN,,Pilot_CG_VP90,orange,cue_left_3t,cue_left,3t
129,5,1,4,[1 2 4 5],2,17,961,2002.08333333333,NaN,960,2,768,1.6,480,1,2,5,26,0,NaN,NaN,NaN,NaN,40,41,46,hit,781.447553634644,noevent,NaN,,Pilot_CG_VP90,orange,cue_right_6t,cue_right,6t
130,5,1,6,[1 4],2,17,913,1902.08333333333,NaN,912,1.9,912,1.9,480,1,2,4,20,0,NaN,NaN,NaN,NaN,60,61,66,hit,585.815858840942,noevent,NaN,,Pilot_CG_VP90,orange,cue_right_3t,cue_right,3t
131,5,1,2,[1 3 4 6],2,17,865,1802.08333333333,NaN,864,1.8,864,1.8,480,1,2,4,20,0,NaN,NaN,NaN,NaN,20,21,26,hit,579.988384246826,noevent,NaN,,Pilot_CG_VP90,orange,cue_right_3t3d,cue_right,3t_3d
132,5,2,1,[1 3 4 6],1,23,721,1502.08333333333,NaN,720,1.5,480,1,480,1,2,1,23,0,NaN,NaN,NaN,NaN,10,11,16,hit,572.673559188843,noevent,NaN,,Pilot_CG_VP90,orange,cue_left_3t3d,cue_left,3t_3d
133,5,2,6,[1 4],2,17,817,1702.08333333333,NaN,816,1.7,672,1.4,480,1,1,4,20,0,NaN,NaN,NaN,NaN,60,61,65,hit,730.631494522095,noevent,NaN,,Pilot_CG_VP90,orange,cue_right_3t,cue_right,3t
134,5,2,2,[1 3 4 6],2,17,913,1902.08333333333,NaN,912,1.9,480,1,480,1,1,4,20,1,2,2,336,0.7,20,21,25,hit,965.234136581421,error,839.320945739746,82,Pilot_CG_VP90,orange,cue_right_3t3d,cue_right,3t_3d
135,5,1,1,[1 3 4 6],1,23,817,1702.08333333333,NaN,816,1.7,720,1.5,480,1,2,1,23,1,3,1,384,0.8,10,11,16,hit,664.527463912964,error,727.387142181396,81,Pilot_CG_VP90,orange,cue_left_3t3d,cue_left,3t_3d
136,5,1,2,[1 3 4 6],2,17,721,1502.08333333333,NaN,720,1.5,816,1.7,480,1,2,4,20,1,1,1,144,0.3,20,21,26,hit,505.46555519104,hit,854.526710510254,81,Pilot_CG_VP90,orange,cue_right_3t3d,cue_right,3t_3d
137,5,1,1,[1 3 4 6],1,23,913,1902.08333333333,NaN,912,1.9,864,1.8,480,1,1,1,23,1,3,1,480,1,10,11,15,hit,789.004850387573,hit,924.055576324463,81,Pilot_CG_VP90,orange,cue_left_3t3d,cue_left,3t_3d
138,5,1,5,[1 4],1,23,961,2002.08333333333,NaN,960,2,912,1.9,480,1,2,1,23,0,NaN,NaN,NaN,NaN,50,51,56,hit,837.310647964478,noevent,NaN,,Pilot_CG_VP90,orange,cue_left_3t,cue_left,3t
139,5,1,2,[1 3 4 6],2,17,961,2002.08333333333,NaN,960,2,912,1.9,480,1,2,4,20,0,NaN,NaN,NaN,NaN,20,21,26,hit,510.451173782349,noevent,NaN,,Pilot_CG_VP90,orange,cue_right_3t3d,cue_right,3t_3d
140,5,1,4,[1 2 4 5],2,17,865,1802.08333333333,NaN,864,1.8,720,1.5,480,1,2,5,26,1,3,1,192,0.4,40,41,46,hit,788.650703430176,hit,858.687496185303,81,Pilot_CG_VP90,orange,cue_right_6t,cue_right,6t
141,5,1,6,[1 4],2,17,817,1702.08333333333,NaN,816,1.7,720,1.5,480,1,2,4,20,0,NaN,NaN,NaN,NaN,60,61,66,hit,551.8470287323,noevent,NaN,,Pilot_CG_VP90,orange,cue_right_3t,cue_right,3t
142,5,1,1,[1 3 4 6],1,23,817,1702.08333333333,NaN,816,1.7,816,1.7,480,1,2,1,23,0,NaN,NaN,NaN,NaN,10,11,16,hit,1070.43752670288,noevent,NaN,,Pilot_CG_VP90,orange,cue_left_3t3d,cue_left,3t_3d
143,5,1,2,[1 3 4 6],2,17,961,2002.08333333333,NaN,960,2,816,1.7,480,1,1,4,20,0,NaN,NaN,NaN,NaN,20,21,25,error,871.35796546936,noevent,NaN,,Pilot_CG_VP90,orange,cue_right_3t3d,cue_right,3t_3d
144,5,1,4,[1 2 4 5],2,17,913,1902.08333333333,NaN,912,1.9,816,1.7,480,1,1,4,20,0,NaN,NaN,NaN,NaN,40,41,45,hit,656.015539169312,noevent,NaN,,Pilot_CG_VP90,orange,cue_right_6t,cue_right,6t
145,5,1,2,[1 3 4 6],2,17,913,1902.08333333333,NaN,912,1.9,960,2,480,1,2,4,20,0,NaN,NaN,NaN,NaN,20,21,26,hit,552.815771102905,noevent,NaN,,Pilot_CG_VP90,orange,cue_right_3t3d,cue_right,3t_3d
146,5,1,2,[1 3 4 6],2,17,721,1502.08333333333,NaN,720,1.5,816,1.7,480,1,1,4,20,0,NaN,NaN,NaN,NaN,20,21,25,error,686.226892471313,noevent,NaN,,Pilot_CG_VP90,orange,cue_right_3t3d,cue_right,3t_3d
147,5,1,4,[1 2 4 5],2,17,913,1902.08333333333,NaN,912,1.9,912,1.9,480,1,1,5,26,0,NaN,NaN,NaN,NaN,40,41,45,hit,464.554023742676,noevent,NaN,,Pilot_CG_VP90,orange,cue_right_6t,cue_right,6t
148,5,1,2,[1 3 4 6],2,17,865,1802.08333333333,NaN,864,1.8,816,1.7,480,1,1,4,20,0,NaN,NaN,NaN,NaN,20,21,25,hit,537.73021697998,noevent,NaN,,Pilot_CG_VP90,orange,cue_right_3t3d,cue_right,3t_3d
149,5,1,6,[1 4],2,17,721,1502.08333333333,NaN,720,1.5,768,1.6,480,1,1,4,20,0,NaN,NaN,NaN,NaN,60,61,65,hit,478.844308853149,noevent,NaN,,Pilot_CG_VP90,orange,cue_right_3t,cue_right,3t
150,5,1,5,[1 4],1,23,961,2002.08333333333,NaN,960,2,720,1.5,480,1,1,1,23,0,NaN,NaN,NaN,NaN,50,51,55,hit,423.251152038574,noevent,NaN,,Pilot_CG_VP90,orange,cue_left_3t,cue_left,3t
151,6,1,3,[1 2 4 5],1,23,817,1702.08333333333,NaN,816,1.7,816,1.7,480,1,2,2,17,1,1,1,336,0.7,30,31,36,hit,713.241672515869,hit,707.352209091187,81,Pilot_CG_VP90,orange,cue_left_6t,cue_left,6t
152,6,1,3,[1 2 4 5],1,23,865,1802.08333333333,NaN,864,1.8,816,1.7,480,1,1,1,23,0,NaN,NaN,NaN,NaN,30,31,35,hit,502.378702163696,noevent,NaN,,Pilot_CG_VP90,orange,cue_left_6t,cue_left,6t
153,6,2,4,[1 2 4 5],2,17,865,1802.08333333333,NaN,864,1.8,384,0.8,480,1,2,5,26,0,NaN,NaN,NaN,NaN,40,41,46,hit,792.850160598755,noevent,NaN,,Pilot_CG_VP90,orange,cue_right_6t,cue_right,6t
154,6,1,5,[1 4],1,23,913,1902.08333333333,NaN,912,1.9,816,1.7,480,1,1,1,23,0,NaN,NaN,NaN,NaN,50,51,55,hit,726.972484588623,noevent,NaN,,Pilot_CG_VP90,orange,cue_left_3t,cue_left,3t
155,6,1,6,[1 4],2,17,913,1902.08333333333,NaN,912,1.9,912,1.9,480,1,1,4,20,0,NaN,NaN,NaN,NaN,60,61,65,hit,541.455698013306,noevent,NaN,,Pilot_CG_VP90,orange,cue_right_3t,cue_right,3t
156,6,2,3,[1 2 4 5],1,23,769,1602.08333333333,NaN,768,1.6,624,1.3,480,1,2,1,23,0,NaN,NaN,NaN,NaN,30,31,36,hit,532.439804077148,noevent,NaN,,Pilot_CG_VP90,orange,cue_left_6t,cue_left,6t
157,6,1,6,[1 4],2,17,865,1802.08333333333,NaN,864,1.8,864,1.8,480,1,1,4,20,0,NaN,NaN,NaN,NaN,60,61,65,hit,549.173021316528,noevent,NaN,,Pilot_CG_VP90,orange,cue_right_3t,cue_right,3t
158,6,1,3,[1 2 4 5],1,23,913,1902.08333333333,NaN,912,1.9,768,1.6,480,1,1,1,23,0,NaN,NaN,NaN,NaN,30,31,35,error,843.898773193359,noevent,NaN,,Pilot_CG_VP90,orange,cue_left_6t,cue_left,6t
159,6,1,5,[1 4],1,23,913,1902.08333333333,NaN,912,1.9,960,2,480,1,1,1,23,0,NaN,NaN,NaN,NaN,50,51,55,hit,415.903663635254,noevent,NaN,,Pilot_CG_VP90,orange,cue_left_3t,cue_left,3t
160,6,1,4,[1 2 4 5],2,17,817,1702.08333333333,NaN,816,1.7,720,1.5,480,1,2,4,20,0,NaN,NaN,NaN,NaN,40,41,46,hit,616.166639328003,noevent,NaN,,Pilot_CG_VP90,orange,cue_right_6t,cue_right,6t
161,6,2,4,[1 2 4 5],2,17,769,1602.08333333333,NaN,768,1.6,624,1.3,480,1,2,5,26,0,NaN,NaN,NaN,NaN,40,41,46,hit,788.085556030273,noevent,NaN,,Pilot_CG_VP90,orange,cue_right_6t,cue_right,6t
162,6,1,3,[1 2 4 5],1,23,961,2002.08333333333,NaN,960,2,768,1.6,480,1,1,2,17,1,3,1,432,0.9,30,31,35,hit,848.539018630981,hit,952.506399154663,81,Pilot_CG_VP90,orange,cue_left_6t,cue_left,6t
163,6,1,4,[1 2 4 5],2,17,769,1602.08333333333,NaN,768,1.6,768,1.6,480,1,1,4,20,1,1,1,192,0.4,40,41,45,hit,902.165699005127,error,802.23331451416,81,Pilot_CG_VP90,orange,cue_right_6t,cue_right,6t
164,6,1,6,[1 4],2,17,913,1902.08333333333,NaN,912,1.9,960,2,480,1,2,4,20,0,NaN,NaN,NaN,NaN,60,61,66,hit,656.838750839233,noevent,NaN,,Pilot_CG_VP90,orange,cue_right_3t,cue_right,3t
165,6,1,4,[1 2 4 5],2,17,961,2002.08333333333,NaN,960,2,960,2,480,1,1,5,26,0,NaN,NaN,NaN,NaN,40,41,45,error,760.358572006226,noevent,NaN,,Pilot_CG_VP90,orange,cue_right_6t,cue_right,6t
166,6,1,1,[1 3 4 6],1,23,961,2002.08333333333,NaN,960,2,960,2,480,1,1,1,23,0,NaN,NaN,NaN,NaN,10,11,15,hit,624.537467956543,noevent,NaN,,Pilot_CG_VP90,orange,cue_left_3t3d,cue_left,3t_3d
167,6,1,5,[1 4],1,23,721,1502.08333333333,NaN,720,1.5,960,2,480,1,2,1,23,1,1,1,144,0.3,50,51,56,hit,540.372610092163,hit,833.451700210571,81,Pilot_CG_VP90,orange,cue_left_3t,cue_left,3t
168,6,1,5,[1 4],1,23,865,1802.08333333333,NaN,864,1.8,816,1.7,480,1,2,1,23,0,NaN,NaN,NaN,NaN,50,51,56,hit,558.456659317017,noevent,NaN,,Pilot_CG_VP90,orange,cue_left_3t,cue_left,3t
169,6,1,2,[1 3 4 6],2,17,865,1802.08333333333,NaN,864,1.8,912,1.9,480,1,1,4,20,0,NaN,NaN,NaN,NaN,20,21,25,hit,579.682397842407,noevent,NaN,,Pilot_CG_VP90,orange,cue_right_3t3d,cue_right,3t_3d
170,6,2,4,[1 2 4 5],2,17,961,2002.08333333333,NaN,960,2,672,1.4,480,1,2,4,20,0,NaN,NaN,NaN,NaN,40,41,46,hit,722.449398040771,noevent,NaN,,Pilot_CG_VP90,orange,cue_right_6t,cue_right,6t
171,6,1,1,[1 3 4 6],1,23,913,1902.08333333333,NaN,912,1.9,912,1.9,480,1,2,1,23,0,NaN,NaN,NaN,NaN,10,11,16,hit,745.23754119873,noevent,NaN,,Pilot_CG_VP90,orange,cue_left_3t3d,cue_left,3t_3d
172,6,1,4,[1 2 4 5],2,17,817,1702.08333333333,NaN,816,1.7,912,1.9,480,1,1,5,26,1,3,1,336,0.7,40,41,45,hit,1266.14274978638,hit,794.216203689575,81,Pilot_CG_VP90,orange,cue_right_6t,cue_right,6t
173,6,1,6,[1 4],2,17,817,1702.08333333333,NaN,816,1.7,720,1.5,480,1,1,4,20,0,NaN,NaN,NaN,NaN,60,61,65,hit,1044.26698684692,noevent,NaN,,Pilot_CG_VP90,orange,cue_right_3t,cue_right,3t
174,6,1,2,[1 3 4 6],2,17,961,2002.08333333333,NaN,960,2,912,1.9,480,1,2,4,20,0,NaN,NaN,NaN,NaN,20,21,26,hit,631.233072280884,noevent,NaN,,Pilot_CG_VP90,orange,cue_right_3t3d,cue_right,3t_3d
175,6,1,5,[1 4],1,23,769,1602.08333333333,NaN,768,1.6,816,1.7,480,1,2,1,23,0,NaN,NaN,NaN,NaN,50,51,56,hit,655.631732940674,noevent,NaN,,Pilot_CG_VP90,orange,cue_left_3t,cue_left,3t
176,6,2,6,[1 4],2,17,817,1702.08333333333,NaN,816,1.7,672,1.4,480,1,1,4,20,0,NaN,NaN,NaN,NaN,60,61,65,hit,778.16047668457,noevent,NaN,,Pilot_CG_VP90,orange,cue_right_3t,cue_right,3t
177,6,1,3,[1 2 4 5],1,23,817,1702.08333333333,NaN,816,1.7,864,1.8,480,1,2,2,17,1,2,2,528,1.1,30,31,36,hit,1042.74964332581,miss,NaN,82,Pilot_CG_VP90,orange,cue_left_6t,cue_left,6t
178,6,1,5,[1 4],1,23,865,1802.08333333333,NaN,864,1.8,912,1.9,480,1,2,1,23,0,NaN,NaN,NaN,NaN,50,51,56,hit,614.639568328857,noevent,NaN,,Pilot_CG_VP90,orange,cue_left_3t,cue_left,3t
179,6,1,2,[1 3 4 6],2,17,961,2002.08333333333,NaN,960,2,816,1.7,480,1,2,4,20,0,NaN,NaN,NaN,NaN,20,21,26,hit,610.982465744019,noevent,NaN,,Pilot_CG_VP90,orange,cue_right_3t3d,cue_right,3t_3d
180,6,1,3,[1 2 4 5],1,23,865,1802.08333333333,NaN,864,1.8,720,1.5,480,1,2,2,17,1,2,2,432,0.9,30,31,36,hit,1038.01293373108,error,826.021766662598,82,Pilot_CG_VP90,orange,cue_left_6t,cue_left,6t
181,7,1,5,[1 4],1,23,961,2002.08333333333,NaN,960,2,816,1.7,480,1,1,1,23,1,1,1,480,1,50,51,55,hit,503.113794326782,hit,782.301425933838,81,Pilot_CG_VP90,orange,cue_left_3t,cue_left,3t
182,7,1,2,[1 3 4 6],2,17,913,1902.08333333333,NaN,912,1.9,960,2,480,1,2,4,20,1,4,2,624,1.3,20,21,26,hit,603.676891326904,hit,838.653039932251,82,Pilot_CG_VP90,orange,cue_right_3t3d,cue_right,3t_3d
183,7,1,1,[1 3 4 6],1,23,817,1702.08333333333,NaN,816,1.7,912,1.9,480,1,2,1,23,0,NaN,NaN,NaN,NaN,10,11,16,hit,611.016178131104,noevent,NaN,,Pilot_CG_VP90,orange,cue_left_3t3d,cue_left,3t_3d
184,7,1,5,[1 4],1,23,961,2002.08333333333,NaN,960,2,720,1.5,480,1,2,1,23,0,NaN,NaN,NaN,NaN,50,51,56,hit,515.342235565186,noevent,NaN,,Pilot_CG_VP90,orange,cue_left_3t,cue_left,3t
185,7,1,1,[1 3 4 6],1,23,769,1602.08333333333,NaN,768,1.6,912,1.9,480,1,1,1,23,1,4,2,288,0.6,10,11,15,hit,717.325687408447,hit,819.467449188232,82,Pilot_CG_VP90,orange,cue_left_3t3d,cue_left,3t_3d
186,7,1,4,[1 2 4 5],2,17,817,1702.08333333333,NaN,816,1.7,768,1.6,480,1,1,4,20,1,4,2,192,0.4,40,41,45,hit,789.438915252686,hit,766.523456573486,82,Pilot_CG_VP90,orange,cue_right_6t,cue_right,6t
187,7,1,2,[1 3 4 6],2,17,817,1702.08333333333,NaN,816,1.7,768,1.6,480,1,2,4,20,0,NaN,NaN,NaN,NaN,20,21,26,hit,666.727495193481,noevent,NaN,,Pilot_CG_VP90,orange,cue_right_3t3d,cue_right,3t_3d
188,7,1,2,[1 3 4 6],2,17,721,1502.08333333333,NaN,720,1.5,720,1.5,480,1,2,4,20,0,NaN,NaN,NaN,NaN,20,21,26,hit,782.750129699707,noevent,NaN,,Pilot_CG_VP90,orange,cue_right_3t3d,cue_right,3t_3d
189,7,1,3,[1 2 4 5],1,23,721,1502.08333333333,NaN,720,1.5,960,2,480,1,1,2,17,0,NaN,NaN,NaN,NaN,30,31,35,hit,742.243766784668,noevent,NaN,,Pilot_CG_VP90,orange,cue_left_6t,cue_left,6t
190,7,1,2,[1 3 4 6],2,17,913,1902.08333333333,NaN,912,1.9,816,1.7,480,1,1,4,20,0,NaN,NaN,NaN,NaN,20,21,25,hit,554.171228408813,noevent,NaN,,Pilot_CG_VP90,orange,cue_right_3t3d,cue_right,3t_3d
191,7,1,6,[1 4],2,17,961,2002.08333333333,NaN,960,2,864,1.8,480,1,2,4,20,1,1,1,192,0.4,60,61,66,hit,705.743265151978,hit,816.727733612061,81,Pilot_CG_VP90,orange,cue_right_3t,cue_right,3t
192,7,1,3,[1 2 4 5],1,23,865,1802.08333333333,NaN,864,1.8,720,1.5,480,1,1,1,23,1,4,2,432,0.9,30,31,35,hit,589.306545257568,hit,973.319149017334,82,Pilot_CG_VP90,orange,cue_left_6t,cue_left,6t
193,7,1,5,[1 4],1,23,817,1702.08333333333,NaN,816,1.7,960,2,480,1,2,1,23,0,NaN,NaN,NaN,NaN,50,51,56,hit,470.364379882812,noevent,NaN,,Pilot_CG_VP90,orange,cue_left_3t,cue_left,3t
194,7,1,5,[1 4],1,23,721,1502.08333333333,NaN,720,1.5,960,2,480,1,1,1,23,0,NaN,NaN,NaN,NaN,50,51,55,hit,666.369676589966,noevent,NaN,,Pilot_CG_VP90,orange,cue_left_3t,cue_left,3t
195,7,1,2,[1 3 4 6],2,17,865,1802.08333333333,NaN,864,1.8,960,2,480,1,2,4,20,0,NaN,NaN,NaN,NaN,20,21,26,hit,528.566074371338,noevent,NaN,,Pilot_CG_VP90,orange,cue_right_3t3d,cue_right,3t_3d
196,7,1,1,[1 3 4 6],1,23,865,1802.08333333333,NaN,864,1.8,816,1.7,480,1,2,1,23,0,NaN,NaN,NaN,NaN,10,11,16,hit,567.948579788208,noevent,NaN,,Pilot_CG_VP90,orange,cue_left_3t3d,cue_left,3t_3d
197,7,1,4,[1 2 4 5],2,17,865,1802.08333333333,NaN,864,1.8,912,1.9,480,1,2,4,20,0,NaN,NaN,NaN,NaN,40,41,46,error,849.007415771484,noevent,NaN,,Pilot_CG_VP90,orange,cue_right_6t,cue_right,6t
198,7,2,3,[1 2 4 5],1,23,961,2002.08333333333,NaN,960,2,432,0.9,480,1,2,2,17,1,1,1,528,1.1,30,31,36,hit,575.061655044556,miss,NaN,81,Pilot_CG_VP90,orange,cue_left_6t,cue_left,6t
199,7,1,2,[1 3 4 6],2,17,961,2002.08333333333,NaN,960,2,720,1.5,480,1,1,4,20,0,NaN,NaN,NaN,NaN,20,21,25,hit,705.909967422485,noevent,NaN,,Pilot_CG_VP90,orange,cue_right_3t3d,cue_right,3t_3d
200,7,1,4,[1 2 4 5],2,17,769,1602.08333333333,NaN,768,1.6,720,1.5,480,1,2,5,26,1,4,2,192,0.4,40,41,46,hit,824.084901809692,hit,716.149663925171,82,Pilot_CG_VP90,orange,cue_right_6t,cue_right,6t
201,7,1,1,[1 3 4 6],1,23,865,1802.08333333333,NaN,864,1.8,960,2,480,1,1,1,23,1,2,2,240,0.5,10,11,15,hit,715.071868896484,error,856.180906295776,82,Pilot_CG_VP90,orange,cue_left_3t3d,cue_left,3t_3d
202,7,1,3,[1 2 4 5],1,23,817,1702.08333333333,NaN,816,1.7,912,1.9,480,1,1,2,17,0,NaN,NaN,NaN,NaN,30,31,35,hit,574.968957901001,noevent,NaN,,Pilot_CG_VP90,orange,cue_left_6t,cue_left,6t
203,7,2,6,[1 4],2,17,865,1802.08333333333,NaN,864,1.8,576,1.2,480,1,1,4,20,0,NaN,NaN,NaN,NaN,60,61,65,hit,573.658227920532,noevent,NaN,,Pilot_CG_VP90,orange,cue_right_3t,cue_right,3t
204,7,1,3,[1 2 4 5],1,23,817,1702.08333333333,NaN,816,1.7,768,1.6,480,1,2,1,23,0,NaN,NaN,NaN,NaN,30,31,36,hit,597.713422775269,noevent,NaN,,Pilot_CG_VP90,orange,cue_left_6t,cue_left,6t
205,7,1,2,[1 3 4 6],2,17,817,1702.08333333333,NaN,816,1.7,960,2,480,1,1,4,20,0,NaN,NaN,NaN,NaN,20,21,25,hit,483.433294296265,noevent,NaN,,Pilot_CG_VP90,orange,cue_right_3t3d,cue_right,3t_3d
206,7,1,4,[1 2 4 5],2,17,961,2002.08333333333,NaN,960,2,960,2,480,1,2,4,20,1,4,2,192,0.4,40,41,46,hit,797.850847244263,hit,751.694536209106,82,Pilot_CG_VP90,orange,cue_right_6t,cue_right,6t
207,7,1,1,[1 3 4 6],1,23,865,1802.08333333333,NaN,864,1.8,864,1.8,480,1,1,1,23,1,3,1,528,1.1,10,11,15,hit,997.707271575928,hit,894.812488555908,81,Pilot_CG_VP90,orange,cue_left_3t3d,cue_left,3t_3d
208,7,1,4,[1 2 4 5],2,17,769,1602.08333333333,NaN,768,1.6,912,1.9,480,1,2,5,26,0,NaN,NaN,NaN,NaN,40,41,46,hit,673.539400100708,noevent,NaN,,Pilot_CG_VP90,orange,cue_right_6t,cue_right,6t
209,7,2,6,[1 4],2,17,865,1802.08333333333,NaN,864,1.8,336,0.7,480,1,2,4,20,1,2,2,384,0.8,60,61,66,hit,788.432598114014,error,806.464624404907,82,Pilot_CG_VP90,orange,cue_right_3t,cue_right,3t
210,7,1,1,[1 3 4 6],1,23,769,1602.08333333333,NaN,768,1.6,960,2,480,1,2,1,23,1,4,2,192,0.4,10,11,16,hit,465.667152404785,error,859.591817855835,82,Pilot_CG_VP90,orange,cue_left_3t3d,cue_left,3t_3d
211,8,1,1,[1 3 4 6],1,23,961,2002.08333333333,NaN,960,2,960,2,480,1,1,1,23,0,NaN,NaN,NaN,NaN,10,11,15,hit,681.000709533691,noevent,NaN,,Pilot_CG_VP90,orange,cue_left_3t3d,cue_left,3t_3d
212,8,1,3,[1 2 4 5],1,23,769,1602.08333333333,NaN,768,1.6,720,1.5,480,1,1,2,17,1,1,1,144,0.3,30,31,35,hit,653.504514694214,error,732.573223114014,81,Pilot_CG_VP90,orange,cue_left_6t,cue_left,6t
213,8,1,2,[1 3 4 6],2,17,913,1902.08333333333,NaN,912,1.9,864,1.8,480,1,2,4,20,0,NaN,NaN,NaN,NaN,20,21,26,hit,552.110719680786,noevent,NaN,,Pilot_CG_VP90,orange,cue_right_3t3d,cue_right,3t_3d
214,8,1,4,[1 2 4 5],2,17,817,1702.08333333333,NaN,816,1.7,864,1.8,480,1,2,5,26,0,NaN,NaN,NaN,NaN,40,41,46,hit,712.590217590332,noevent,NaN,,Pilot_CG_VP90,orange,cue_right_6t,cue_right,6t
215,8,1,4,[1 2 4 5],2,17,721,1502.08333333333,NaN,720,1.5,912,1.9,480,1,2,5,26,1,1,1,144,0.3,40,41,46,hit,650.534963607788,hit,736.613702774048,81,Pilot_CG_VP90,orange,cue_right_6t,cue_right,6t
216,8,1,6,[1 4],2,17,769,1602.08333333333,NaN,768,1.6,768,1.6,480,1,1,4,20,0,NaN,NaN,NaN,NaN,60,61,65,hit,532.309818267822,noevent,NaN,,Pilot_CG_VP90,orange,cue_right_3t,cue_right,3t
217,8,1,2,[1 3 4 6],2,17,961,2002.08333333333,NaN,960,2,768,1.6,480,1,2,4,20,0,NaN,NaN,NaN,NaN,20,21,26,hit,584.947729110718,noevent,NaN,,Pilot_CG_VP90,orange,cue_right_3t3d,cue_right,3t_3d
218,8,1,6,[1 4],2,17,865,1802.08333333333,NaN,864,1.8,816,1.7,480,1,2,4,20,0,NaN,NaN,NaN,NaN,60,61,66,hit,591.031074523926,noevent,NaN,,Pilot_CG_VP90,orange,cue_right_3t,cue_right,3t
219,8,1,1,[1 3 4 6],1,23,913,1902.08333333333,NaN,912,1.9,960,2,480,1,1,1,23,0,NaN,NaN,NaN,NaN,10,11,15,hit,659.418201446533,noevent,NaN,,Pilot_CG_VP90,orange,cue_left_3t3d,cue_left,3t_3d
220,8,1,3,[1 2 4 5],1,23,865,1802.08333333333,NaN,864,1.8,960,2,480,1,2,1,23,0,NaN,NaN,NaN,NaN,30,31,36,hit,769.689035415649,noevent,NaN,,Pilot_CG_VP90,orange,cue_left_6t,cue_left,6t
221,8,2,3,[1 2 4 5],1,23,769,1602.08333333333,NaN,768,1.6,624,1.3,480,1,2,1,23,0,NaN,NaN,NaN,NaN,30,31,36,hit,568.355655670166,noevent,NaN,,Pilot_CG_VP90,orange,cue_left_6t,cue_left,6t
222,8,2,5,[1 4],1,23,769,1602.08333333333,NaN,768,1.6,672,1.4,480,1,2,1,23,0,NaN,NaN,NaN,NaN,50,51,56,hit,650.199890136719,noevent,NaN,,Pilot_CG_VP90,orange,cue_left_3t,cue_left,3t
223,8,2,1,[1 3 4 6],1,23,769,1602.08333333333,NaN,768,1.6,384,0.8,480,1,1,1,23,0,NaN,NaN,NaN,NaN,10,11,15,hit,697.899913787842,noevent,NaN,,Pilot_CG_VP90,orange,cue_left_3t3d,cue_left,3t_3d
224,8,2,5,[1 4],1,23,769,1602.08333333333,NaN,768,1.6,528,1.1,480,1,1,1,23,0,NaN,NaN,NaN,NaN,50,51,55,hit,474.771547317505,noevent,NaN,,Pilot_CG_VP90,orange,cue_left_3t,cue_left,3t
225,8,2,2,[1 3 4 6],2,17,769,1602.08333333333,NaN,768,1.6,480,1,480,1,1,4,20,0,NaN,NaN,NaN,NaN,20,21,25,hit,677.635097503662,noevent,NaN,,Pilot_CG_VP90,orange,cue_right_3t3d,cue_right,3t_3d
226,8,1,6,[1 4],2,17,721,1502.08333333333,NaN,720,1.5,816,1.7,480,1,2,4,20,1,4,2,240,0.5,60,61,66,error,591.134595870972,miss,NaN,82,Pilot_CG_VP90,orange,cue_right_3t,cue_right,3t
227,8,1,3,[1 2 4 5],1,23,865,1802.08333333333,NaN,864,1.8,960,2,480,1,2,1,23,1,2,2,432,0.9,30,31,36,hit,764.435243606567,hit,883.369541168213,82,Pilot_CG_VP90,orange,cue_left_6t,cue_left,6t
228,8,2,6,[1 4],2,17,769,1602.08333333333,NaN,768,1.6,432,0.9,480,1,1,4,20,0,NaN,NaN,NaN,NaN,60,61,65,hit,673.514604568481,noevent,NaN,,Pilot_CG_VP90,orange,cue_right_3t,cue_right,3t
229,8,1,4,[1 2 4 5],2,17,769,1602.08333333333,NaN,768,1.6,864,1.8,480,1,1,5,26,0,NaN,NaN,NaN,NaN,40,41,45,hit,701.53865814209,noevent,NaN,,Pilot_CG_VP90,orange,cue_right_6t,cue_right,6t
230,8,1,6,[1 4],2,17,817,1702.08333333333,NaN,816,1.7,720,1.5,480,1,2,4,20,1,1,1,432,0.9,60,61,66,hit,549.836444854736,error,713.984584808349,81,Pilot_CG_VP90,orange,cue_right_3t,cue_right,3t
231,8,1,2,[1 3 4 6],2,17,961,2002.08333333333,NaN,960,2,720,1.5,480,1,2,4,20,0,NaN,NaN,NaN,NaN,20,21,26,hit,1102.85592079163,noevent,NaN,,Pilot_CG_VP90,orange,cue_right_3t3d,cue_right,3t_3d
232,8,1,5,[1 4],1,23,769,1602.08333333333,NaN,768,1.6,960,2,480,1,2,1,23,0,NaN,NaN,NaN,NaN,50,51,56,hit,638.194942474365,noevent,NaN,,Pilot_CG_VP90,orange,cue_left_3t,cue_left,3t
233,8,1,1,[1 3 4 6],1,23,769,1602.08333333333,NaN,768,1.6,864,1.8,480,1,1,1,23,0,NaN,NaN,NaN,NaN,10,11,15,hit,895.413732528687,noevent,NaN,,Pilot_CG_VP90,orange,cue_left_3t3d,cue_left,3t_3d
234,8,1,6,[1 4],2,17,865,1802.08333333333,NaN,864,1.8,816,1.7,480,1,2,4,20,0,NaN,NaN,NaN,NaN,60,61,66,hit,476.427793502808,noevent,NaN,,Pilot_CG_VP90,orange,cue_right_3t,cue_right,3t
235,8,1,1,[1 3 4 6],1,23,721,1502.08333333333,NaN,720,1.5,816,1.7,480,1,2,1,23,0,NaN,NaN,NaN,NaN,10,11,16,hit,800.753164291382,noevent,NaN,,Pilot_CG_VP90,orange,cue_left_3t3d,cue_left,3t_3d
236,8,1,1,[1 3 4 6],1,23,961,2002.08333333333,NaN,960,2,768,1.6,480,1,1,1,23,1,4,2,528,1.1,10,11,15,hit,441.38708114624,hit,885.492944717407,82,Pilot_CG_VP90,orange,cue_left_3t3d,cue_left,3t_3d
237,8,1,5,[1 4],1,23,913,1902.08333333333,NaN,912,1.9,816,1.7,480,1,1,1,23,0,NaN,NaN,NaN,NaN,50,51,55,hit,580.913925170898,noevent,NaN,,Pilot_CG_VP90,orange,cue_left_3t,cue_left,3t
238,8,1,5,[1 4],1,23,721,1502.08333333333,NaN,720,1.5,960,2,480,1,1,1,23,1,3,1,288,0.6,50,51,55,hit,546.342611312866,hit,895.413780212402,81,Pilot_CG_VP90,orange,cue_left_3t,cue_left,3t
239,8,1,2,[1 3 4 6],2,17,913,1902.08333333333,NaN,912,1.9,768,1.6,480,1,1,4,20,1,1,1,480,1,20,21,25,hit,767.939329147339,hit,896.039485931396,81,Pilot_CG_VP90,orange,cue_right_3t3d,cue_right,3t_3d
240,8,1,3,[1 2 4 5],1,23,961,2002.08333333333,NaN,960,2,720,1.5,480,1,1,2,17,0,NaN,NaN,NaN,NaN,30,31,35,hit,602.941513061523,noevent,NaN,,Pilot_CG_VP90,orange,cue_left_6t,cue_left,6t
241,9,1,5,[1 4],1,23,769,1602.08333333333,NaN,768,1.6,912,1.9,480,1,2,1,23,1,2,2,384,0.8,50,51,56,hit,578.731060028076,hit,991.733264923096,82,Pilot_CG_VP90,orange,cue_left_3t,cue_left,3t
242,9,1,5,[1 4],1,23,721,1502.08333333333,NaN,720,1.5,864,1.8,480,1,1,1,23,0,NaN,NaN,NaN,NaN,50,51,55,hit,472.106170654297,noevent,NaN,,Pilot_CG_VP90,orange,cue_left_3t,cue_left,3t
243,9,1,5,[1 4],1,23,769,1602.08333333333,NaN,768,1.6,912,1.9,480,1,2,1,23,0,NaN,NaN,NaN,NaN,50,51,56,hit,618.984460830688,noevent,NaN,,Pilot_CG_VP90,orange,cue_left_3t,cue_left,3t
244,9,1,2,[1 3 4 6],2,17,721,1502.08333333333,NaN,720,1.5,912,1.9,480,1,1,4,20,0,NaN,NaN,NaN,NaN,20,21,25,hit,654.885625839233,noevent,NaN,,Pilot_CG_VP90,orange,cue_right_3t3d,cue_right,3t_3d
245,9,1,5,[1 4],1,23,721,1502.08333333333,NaN,720,1.5,720,1.5,480,1,2,1,23,0,NaN,NaN,NaN,NaN,50,51,56,hit,950.380802154541,noevent,NaN,,Pilot_CG_VP90,orange,cue_left_3t,cue_left,3t
246,9,1,2,[1 3 4 6],2,17,961,2002.08333333333,NaN,960,2,816,1.7,480,1,1,4,20,0,NaN,NaN,NaN,NaN,20,21,25,hit,534.776020050049,noevent,NaN,,Pilot_CG_VP90,orange,cue_right_3t3d,cue_right,3t_3d
247,9,2,1,[1 3 4 6],1,23,769,1602.08333333333,NaN,768,1.6,384,0.8,480,1,1,1,23,0,NaN,NaN,NaN,NaN,10,11,15,hit,486.273145675659,noevent,NaN,,Pilot_CG_VP90,orange,cue_left_3t3d,cue_left,3t_3d
248,9,1,4,[1 2 4 5],2,17,961,2002.08333333333,NaN,960,2,960,2,480,1,2,4,20,0,NaN,NaN,NaN,NaN,40,41,46,hit,895.311117172241,noevent,NaN,,Pilot_CG_VP90,orange,cue_right_6t,cue_right,6t
249,9,1,4,[1 2 4 5],2,17,817,1702.08333333333,NaN,816,1.7,912,1.9,480,1,2,4,20,0,NaN,NaN,NaN,NaN,40,41,46,hit,905.03945350647,noevent,NaN,,Pilot_CG_VP90,orange,cue_right_6t,cue_right,6t
250,9,2,3,[1 2 4 5],1,23,721,1502.08333333333,NaN,720,1.5,336,0.7,480,1,1,1,23,0,NaN,NaN,NaN,NaN,30,31,35,hit,605.619716644287,noevent,NaN,,Pilot_CG_VP90,orange,cue_left_6t,cue_left,6t
251,9,1,5,[1 4],1,23,913,1902.08333333333,NaN,912,1.9,720,1.5,480,1,1,1,23,0,NaN,NaN,NaN,NaN,50,51,55,hit,451.425409317017,noevent,NaN,,Pilot_CG_VP90,orange,cue_left_3t,cue_left,3t
252,9,1,2,[1 3 4 6],2,17,769,1602.08333333333,NaN,768,1.6,816,1.7,480,1,1,4,20,0,NaN,NaN,NaN,NaN,20,21,25,hit,609.801006317139,noevent,NaN,,Pilot_CG_VP90,orange,cue_right_3t3d,cue_right,3t_3d
253,9,1,5,[1 4],1,23,721,1502.08333333333,NaN,720,1.5,912,1.9,480,1,2,1,23,0,NaN,NaN,NaN,NaN,50,51,56,hit,508.063888549805,noevent,NaN,,Pilot_CG_VP90,orange,cue_left_3t,cue_left,3t
254,9,1,6,[1 4],2,17,913,1902.08333333333,NaN,912,1.9,768,1.6,480,1,1,4,20,0,NaN,NaN,NaN,NaN,60,61,65,hit,516.405820846558,noevent,NaN,,Pilot_CG_VP90,orange,cue_right_3t,cue_right,3t
255,9,1,3,[1 2 4 5],1,23,961,2002.08333333333,NaN,960,2,720,1.5,480,1,2,2,17,0,NaN,NaN,NaN,NaN,30,31,36,hit,621.559143066406,noevent,NaN,,Pilot_CG_VP90,orange,cue_left_6t,cue_left,6t
256,9,1,4,[1 2 4 5],2,17,769,1602.08333333333,NaN,768,1.6,720,1.5,480,1,2,4,20,1,3,1,384,0.8,40,41,46,hit,904.450559616089,hit,921.572637557983,81,Pilot_CG_VP90,orange,cue_right_6t,cue_right,6t
257,9,1,6,[1 4],2,17,913,1902.08333333333,NaN,912,1.9,960,2,480,1,2,4,20,0,NaN,NaN,NaN,NaN,60,61,66,hit,506.861066818237,noevent,NaN,,Pilot_CG_VP90,orange,cue_right_3t,cue_right,3t
258,9,1,1,[1 3 4 6],1,23,961,2002.08333333333,NaN,960,2,864,1.8,480,1,1,1,23,1,4,2,576,1.2,10,11,15,hit,699.295473098755,hit,800.285625457763,82,Pilot_CG_VP90,orange,cue_left_3t3d,cue_left,3t_3d
259,9,1,3,[1 2 4 5],1,23,769,1602.08333333333,NaN,768,1.6,816,1.7,480,1,2,1,23,0,NaN,NaN,NaN,NaN,30,31,36,hit,730.431509017944,noevent,NaN,,Pilot_CG_VP90,orange,cue_left_6t,cue_left,6t
260,9,1,6,[1 4],2,17,913,1902.08333333333,NaN,912,1.9,768,1.6,480,1,2,4,20,0,NaN,NaN,NaN,NaN,60,61,66,hit,576.929330825806,noevent,NaN,,Pilot_CG_VP90,orange,cue_right_3t,cue_right,3t
261,9,1,6,[1 4],2,17,721,1502.08333333333,NaN,720,1.5,816,1.7,480,1,2,4,20,0,NaN,NaN,NaN,NaN,60,61,66,hit,657.444286346436,noevent,NaN,,Pilot_CG_VP90,orange,cue_right_3t,cue_right,3t
262,9,1,2,[1 3 4 6],2,17,769,1602.08333333333,NaN,768,1.6,864,1.8,480,1,2,4,20,0,NaN,NaN,NaN,NaN,20,21,26,hit,1095.95880508423,noevent,NaN,,Pilot_CG_VP90,orange,cue_right_3t3d,cue_right,3t_3d
263,9,1,5,[1 4],1,23,913,1902.08333333333,NaN,912,1.9,960,2,480,1,1,1,23,0,NaN,NaN,NaN,NaN,50,51,55,hit,421.757793426514,noevent,NaN,,Pilot_CG_VP90,orange,cue_left_3t,cue_left,3t
264,9,1,4,[1 2 4 5],2,17,913,1902.08333333333,NaN,912,1.9,768,1.6,480,1,2,5,26,0,NaN,NaN,NaN,NaN,40,41,46,hit,727.592945098877,noevent,NaN,,Pilot_CG_VP90,orange,cue_right_6t,cue_right,6t
265,9,1,5,[1 4],1,23,769,1602.08333333333,NaN,768,1.6,768,1.6,480,1,2,1,23,0,NaN,NaN,NaN,NaN,50,51,56,hit,692.839908599854,noevent,NaN,,Pilot_CG_VP90,orange,cue_left_3t,cue_left,3t
266,9,1,2,[1 3 4 6],2,17,721,1502.08333333333,NaN,720,1.5,864,1.8,480,1,1,4,20,0,NaN,NaN,NaN,NaN,20,21,25,hit,718.118381500244,noevent,NaN,,Pilot_CG_VP90,orange,cue_right_3t3d,cue_right,3t_3d
267,9,1,1,[1 3 4 6],1,23,721,1502.08333333333,NaN,720,1.5,768,1.6,480,1,1,1,23,0,NaN,NaN,NaN,NaN,10,11,15,hit,664.829874038696,noevent,NaN,,Pilot_CG_VP90,orange,cue_left_3t3d,cue_left,3t_3d
268,9,1,3,[1 2 4 5],1,23,961,2002.08333333333,NaN,960,2,912,1.9,480,1,1,1,23,0,NaN,NaN,NaN,NaN,30,31,35,hit,763.273811340332,noevent,NaN,,Pilot_CG_VP90,orange,cue_left_6t,cue_left,6t
269,9,1,3,[1 2 4 5],1,23,721,1502.08333333333,NaN,720,1.5,864,1.8,480,1,2,1,23,0,NaN,NaN,NaN,NaN,30,31,36,hit,648.486328125,noevent,NaN,,Pilot_CG_VP90,orange,cue_left_6t,cue_left,6t
270,9,1,6,[1 4],2,17,769,1602.08333333333,NaN,768,1.6,864,1.8,480,1,1,4,20,1,2,2,480,1,60,61,65,hit,539.033031463623,error,867.169857025146,82,Pilot_CG_VP90,orange,cue_right_3t,cue_right,3t
271,10,1,4,[1 2 4 5],2,17,769,1602.08333333333,NaN,768,1.6,816,1.7,480,1,2,4,20,1,1,1,192,0.4,40,41,46,hit,779.888820648193,error,997.766351699829,81,Pilot_CG_VP90,orange,cue_right_6t,cue_right,6t
272,10,1,2,[1 3 4 6],2,17,769,1602.08333333333,NaN,768,1.6,768,1.6,480,1,1,4,20,0,NaN,NaN,NaN,NaN,20,21,25,hit,501.496124267578,noevent,NaN,,Pilot_CG_VP90,orange,cue_right_3t3d,cue_right,3t_3d
273,10,1,4,[1 2 4 5],2,17,769,1602.08333333333,NaN,768,1.6,768,1.6,480,1,1,4,20,1,3,1,144,0.3,40,41,45,hit,511.216688156128,hit,751.113605499268,81,Pilot_CG_VP90,orange,cue_right_6t,cue_right,6t
274,10,1,3,[1 2 4 5],1,23,721,1502.08333333333,NaN,720,1.5,960,2,480,1,1,1,23,0,NaN,NaN,NaN,NaN,30,31,35,hit,491.301536560059,noevent,NaN,,Pilot_CG_VP90,orange,cue_left_6t,cue_left,6t
275,10,1,4,[1 2 4 5],2,17,769,1602.08333333333,NaN,768,1.6,768,1.6,480,1,2,5,26,0,NaN,NaN,NaN,NaN,40,41,46,error,996.371078491211,noevent,NaN,,Pilot_CG_VP90,orange,cue_right_6t,cue_right,6t
276,10,2,1,[1 3 4 6],1,23,913,1902.08333333333,NaN,912,1.9,432,0.9,480,1,2,1,23,1,1,1,336,0.7,10,11,16,hit,615.440797805786,hit,736.516761779785,81,Pilot_CG_VP90,orange,cue_left_3t3d,cue_left,3t_3d
277,10,1,6,[1 4],2,17,817,1702.08333333333,NaN,816,1.7,912,1.9,480,1,2,4,20,1,2,2,384,0.8,60,61,66,hit,536.692523956299,hit,953.66735458374,82,Pilot_CG_VP90,orange,cue_right_3t,cue_right,3t
278,10,1,4,[1 2 4 5],2,17,721,1502.08333333333,NaN,720,1.5,960,2,480,1,1,4,20,0,NaN,NaN,NaN,NaN,40,41,45,error,1194.73886489868,noevent,NaN,,Pilot_CG_VP90,orange,cue_right_6t,cue_right,6t
279,10,1,4,[1 2 4 5],2,17,817,1702.08333333333,NaN,816,1.7,720,1.5,480,1,1,5,26,1,2,2,432,0.9,40,41,45,hit,1151.63760185242,miss,NaN,82,Pilot_CG_VP90,orange,cue_right_6t,cue_right,6t
280,10,1,6,[1 4],2,17,913,1902.08333333333,NaN,912,1.9,864,1.8,480,1,2,4,20,0,NaN,NaN,NaN,NaN,60,61,66,hit,648.973035812378,noevent,NaN,,Pilot_CG_VP90,orange,cue_right_3t,cue_right,3t
281,10,1,6,[1 4],2,17,769,1602.08333333333,NaN,768,1.6,912,1.9,480,1,1,4,20,0,NaN,NaN,NaN,NaN,60,61,65,hit,523.103475570679,noevent,NaN,,Pilot_CG_VP90,orange,cue_right_3t,cue_right,3t
282,10,1,4,[1 2 4 5],2,17,913,1902.08333333333,NaN,912,1.9,816,1.7,480,1,1,5,26,0,NaN,NaN,NaN,NaN,40,41,45,hit,902.802610397339,noevent,NaN,,Pilot_CG_VP90,orange,cue_right_6t,cue_right,6t
283,10,1,3,[1 2 4 5],1,23,769,1602.08333333333,NaN,768,1.6,816,1.7,480,1,1,1,23,0,NaN,NaN,NaN,NaN,30,31,35,hit,638.289403915405,noevent,NaN,,Pilot_CG_VP90,orange,cue_left_6t,cue_left,6t
284,10,2,1,[1 3 4 6],1,23,865,1802.08333333333,NaN,864,1.8,576,1.2,480,1,2,1,23,0,NaN,NaN,NaN,NaN,10,11,16,hit,596.473217010498,noevent,NaN,,Pilot_CG_VP90,orange,cue_left_3t3d,cue_left,3t_3d
285,10,1,2,[1 3 4 6],2,17,817,1702.08333333333,NaN,816,1.7,816,1.7,480,1,2,4,20,0,NaN,NaN,NaN,NaN,20,21,26,hit,890.570259094238,noevent,NaN,,Pilot_CG_VP90,orange,cue_right_3t3d,cue_right,3t_3d
286,10,1,1,[1 3 4 6],1,23,913,1902.08333333333,NaN,912,1.9,912,1.9,480,1,1,1,23,0,NaN,NaN,NaN,NaN,10,11,15,hit,548.664283752441,noevent,NaN,,Pilot_CG_VP90,orange,cue_left_3t3d,cue_left,3t_3d
287,10,1,4,[1 2 4 5],2,17,913,1902.08333333333,NaN,912,1.9,912,1.9,480,1,2,5,26,0,NaN,NaN,NaN,NaN,40,41,46,hit,550.468397140503,noevent,NaN,,Pilot_CG_VP90,orange,cue_right_6t,cue_right,6t
288,10,1,6,[1 4],2,17,961,2002.08333333333,NaN,960,2,720,1.5,480,1,1,4,20,0,NaN,NaN,NaN,NaN,60,61,65,hit,682.236433029175,noevent,NaN,,Pilot_CG_VP90,orange,cue_right_3t,cue_right,3t
289,10,1,4,[1 2 4 5],2,17,817,1702.08333333333,NaN,816,1.7,960,2,480,1,1,5,26,1,3,1,480,1,40,41,45,hit,720.754432678223,hit,885.832548141479,81,Pilot_CG_VP90,orange,cue_right_6t,cue_right,6t
290,10,1,1,[1 3 4 6],1,23,865,1802.08333333333,NaN,864,1.8,720,1.5,480,1,1,1,23,0,NaN,NaN,NaN,NaN,10,11,15,hit,375.414800643921,noevent,NaN,,Pilot_CG_VP90,orange,cue_left_3t3d,cue_left,3t_3d
291,10,1,1,[1 3 4 6],1,23,721,1502.08333333333,NaN,720,1.5,768,1.6,480,1,1,1,23,0,NaN,NaN,NaN,NaN,10,11,15,hit,583.780670166016,noevent,NaN,,Pilot_CG_VP90,orange,cue_left_3t3d,cue_left,3t_3d
292,10,1,4,[1 2 4 5],2,17,721,1502.08333333333,NaN,720,1.5,912,1.9,480,1,2,4,20,0,NaN,NaN,NaN,NaN,40,41,46,hit,877.385473251343,noevent,NaN,,Pilot_CG_VP90,orange,cue_right_6t,cue_right,6t
293,10,1,5,[1 4],1,23,721,1502.08333333333,NaN,720,1.5,960,2,480,1,2,1,23,0,NaN,NaN,NaN,NaN,50,51,56,hit,676.645755767822,noevent,NaN,,Pilot_CG_VP90,orange,cue_left_3t,cue_left,3t
294,10,1,5,[1 4],1,23,769,1602.08333333333,NaN,768,1.6,864,1.8,480,1,2,1,23,0,NaN,NaN,NaN,NaN,50,51,56,hit,466.552114486694,noevent,NaN,,Pilot_CG_VP90,orange,cue_left_3t,cue_left,3t
295,10,1,3,[1 2 4 5],1,23,817,1702.08333333333,NaN,816,1.7,864,1.8,480,1,2,1,23,0,NaN,NaN,NaN,NaN,30,31,36,hit,637.36367225647,noevent,NaN,,Pilot_CG_VP90,orange,cue_left_6t,cue_left,6t
296,10,1,5,[1 4],1,23,721,1502.08333333333,NaN,720,1.5,864,1.8,480,1,1,1,23,0,NaN,NaN,NaN,NaN,50,51,55,hit,705.616426467896,noevent,NaN,,Pilot_CG_VP90,orange,cue_left_3t,cue_left,3t
297,10,1,6,[1 4],2,17,817,1702.08333333333,NaN,816,1.7,768,1.6,480,1,2,4,20,0,NaN,NaN,NaN,NaN,60,61,66,hit,464.190435409546,noevent,NaN,,Pilot_CG_VP90,orange,cue_right_3t,cue_right,3t
298,10,1,2,[1 3 4 6],2,17,913,1902.08333333333,NaN,912,1.9,720,1.5,480,1,2,4,20,0,NaN,NaN,NaN,NaN,20,21,26,hit,707.559680938721,noevent,NaN,,Pilot_CG_VP90,orange,cue_right_3t3d,cue_right,3t_3d
299,10,1,4,[1 2 4 5],2,17,721,1502.08333333333,NaN,720,1.5,768,1.6,480,1,2,5,26,0,NaN,NaN,NaN,NaN,40,41,46,hit,723.11749458313,noevent,NaN,,Pilot_CG_VP90,orange,cue_right_6t,cue_right,6t
300,10,1,3,[1 2 4 5],1,23,913,1902.08333333333,NaN,912,1.9,864,1.8,480,1,1,2,17,0,NaN,NaN,NaN,NaN,30,31,35,hit,658.980178833008,noevent,NaN,,Pilot_CG_VP90,orange,cue_left_6t,cue_left,6t
1,1,1,4,[1 2 4 5],2,26,865,1802.08333333333,NaN,864,1.8,912,1.9,480,1,1,4,20,0,NaN,NaN,NaN,NaN,40,41,45,hit,460.799026489258,noevent,NaN,,Pilot_Chris_VP92,orange,cue_right_6t,cue_right,6t
2,1,1,3,[1 2 4 5],1,17,769,1602.08333333333,NaN,768,1.6,960,2,480,1,2,1,17,0,NaN,NaN,NaN,NaN,30,31,36,hit,382.741355895996,noevent,NaN,,Pilot_Chris_VP92,orange,cue_left_6t,cue_left,6t
3,1,1,5,[1 4],1,17,769,1602.08333333333,NaN,768,1.6,912,1.9,480,1,1,1,17,0,NaN,NaN,NaN,NaN,50,51,55,error,399.497747421265,noevent,NaN,,Pilot_Chris_VP92,orange,cue_left_3t,cue_left,3t
4,1,1,3,[1 2 4 5],1,17,865,1802.08333333333,NaN,864,1.8,720,1.5,480,1,1,2,26,0,NaN,NaN,NaN,NaN,30,31,35,error,612.9798412323,noevent,NaN,,Pilot_Chris_VP92,orange,cue_left_6t,cue_left,6t
5,1,1,6,[1 4],2,26,817,1702.08333333333,NaN,816,1.7,768,1.6,480,1,1,4,20,0,NaN,NaN,NaN,NaN,60,61,65,hit,496.177387237549,noevent,NaN,,Pilot_Chris_VP92,orange,cue_right_3t,cue_right,3t
6,1,2,1,[1 3 4 6],1,17,961,2002.08333333333,NaN,960,2,384,0.8,480,1,2,1,17,0,NaN,NaN,NaN,NaN,10,11,16,hit,320.267391204834,noevent,NaN,,Pilot_Chris_VP92,orange,cue_left_3t3d,cue_left,3t_3d
7,1,1,1,[1 3 4 6],1,17,769,1602.08333333333,NaN,768,1.6,912,1.9,480,1,2,1,17,0,NaN,NaN,NaN,NaN,10,11,16,hit,397.289752960205,noevent,NaN,,Pilot_Chris_VP92,orange,cue_left_3t3d,cue_left,3t_3d
8,1,2,5,[1 4],1,17,865,1802.08333333333,NaN,864,1.8,624,1.3,480,1,1,1,17,1,1,1,384,0.8,50,51,55,hit,703.956747055054,error,637.026262283325,81,Pilot_Chris_VP92,orange,cue_left_3t,cue_left,3t
9,1,1,3,[1 2 4 5],1,17,913,1902.08333333333,NaN,912,1.9,720,1.5,480,1,1,1,17,0,NaN,NaN,NaN,NaN,30,31,35,hit,411.538219451904,noevent,NaN,,Pilot_Chris_VP92,orange,cue_left_6t,cue_left,6t
10,1,2,3,[1 2 4 5],1,17,865,1802.08333333333,NaN,864,1.8,528,1.1,480,1,1,2,26,0,NaN,NaN,NaN,NaN,30,31,35,hit,526.70750617981,noevent,NaN,,Pilot_Chris_VP92,orange,cue_left_6t,cue_left,6t
11,1,1,5,[1 4],1,17,961,2002.08333333333,NaN,960,2,864,1.8,480,1,1,1,17,0,NaN,NaN,NaN,NaN,50,51,55,error,397.187185287476,noevent,NaN,,Pilot_Chris_VP92,orange,cue_left_3t,cue_left,3t
12,1,2,6,[1 4],2,26,913,1902.08333333333,NaN,912,1.9,432,0.9,480,1,2,4,20,0,NaN,NaN,NaN,NaN,60,61,66,hit,381.16021156311,noevent,NaN,,Pilot_Chris_VP92,orange,cue_right_3t,cue_right,3t
13,1,1,6,[1 4],2,26,721,1502.08333333333,NaN,720,1.5,768,1.6,480,1,2,4,20,0,NaN,NaN,NaN,NaN,60,61,66,hit,473.749303817749,noevent,NaN,,Pilot_Chris_VP92,orange,cue_right_3t,cue_right,3t
14,1,2,2,[1 3 4 6],2,26,817,1702.08333333333,NaN,816,1.7,480,1,480,1,2,4,20,0,NaN,NaN,NaN,NaN,20,21,26,hit,399.792242050171,noevent,NaN,,Pilot_Chris_VP92,orange,cue_right_3t3d,cue_right,3t_3d
15,1,2,4,[1 2 4 5],2,26,913,1902.08333333333,NaN,912,1.9,480,1,480,1,1,4,20,0,NaN,NaN,NaN,NaN,40,41,45,hit,389.520025253296,noevent,NaN,,Pilot_Chris_VP92,orange,cue_right_6t,cue_right,6t
16,1,1,6,[1 4],2,26,865,1802.08333333333,NaN,864,1.8,864,1.8,480,1,1,4,20,0,NaN,NaN,NaN,NaN,60,61,65,hit,435.668611526489,noevent,NaN,,Pilot_Chris_VP92,orange,cue_right_3t,cue_right,3t
17,1,1,1,[1 3 4 6],1,17,865,1802.08333333333,NaN,864,1.8,816,1.7,480,1,2,1,17,0,NaN,NaN,NaN,NaN,10,11,16,hit,466.853857040405,noevent,NaN,,Pilot_Chris_VP92,orange,cue_left_3t3d,cue_left,3t_3d
18,1,1,2,[1 3 4 6],2,26,769,1602.08333333333,NaN,768,1.6,816,1.7,480,1,2,4,20,0,NaN,NaN,NaN,NaN,20,21,26,error,587.597560882568,noevent,NaN,,Pilot_Chris_VP92,orange,cue_right_3t3d,cue_right,3t_3d
19,1,1,3,[1 2 4 5],1,17,817,1702.08333333333,NaN,816,1.7,960,2,480,1,1,1,17,1,4,2,432,0.9,30,31,35,error,733.843851089478,hit,349.059677124023,82,Pilot_Chris_VP92,orange,cue_left_6t,cue_left,6t
20,1,2,4,[1 2 4 5],2,26,913,1902.08333333333,NaN,912,1.9,576,1.2,480,1,1,5,23,1,3,1,336,0.7,40,41,45,error,600.109958648682,error,384.160804748535,81,Pilot_Chris_VP92,orange,cue_right_6t,cue_right,6t
21,1,1,1,[1 3 4 6],1,17,913,1902.08333333333,NaN,912,1.9,864,1.8,480,1,1,1,17,0,NaN,NaN,NaN,NaN,10,11,15,hit,595.921325683594,noevent,NaN,,Pilot_Chris_VP92,orange,cue_left_3t3d,cue_left,3t_3d
22,1,2,3,[1 2 4 5],1,17,769,1602.08333333333,NaN,768,1.6,576,1.2,480,1,1,2,26,0,NaN,NaN,NaN,NaN,30,31,35,hit,472.799968719482,noevent,NaN,,Pilot_Chris_VP92,orange,cue_left_6t,cue_left,6t
23,1,1,2,[1 3 4 6],2,26,721,1502.08333333333,NaN,720,1.5,960,2,480,1,2,4,20,1,2,2,144,0.3,20,21,26,error,710.493087768555,hit,488.741111755371,82,Pilot_Chris_VP92,orange,cue_right_3t3d,cue_right,3t_3d
24,1,1,4,[1 2 4 5],2,26,769,1602.08333333333,NaN,768,1.6,816,1.7,480,1,1,5,23,0,NaN,NaN,NaN,NaN,40,41,45,error,467.623901367188,noevent,NaN,,Pilot_Chris_VP92,orange,cue_right_6t,cue_right,6t
25,1,1,2,[1 3 4 6],2,26,865,1802.08333333333,NaN,864,1.8,816,1.7,480,1,1,4,20,0,NaN,NaN,NaN,NaN,20,21,25,hit,508.507013320923,noevent,NaN,,Pilot_Chris_VP92,orange,cue_right_3t3d,cue_right,3t_3d
26,1,1,4,[1 2 4 5],2,26,913,1902.08333333333,NaN,912,1.9,720,1.5,480,1,1,4,20,0,NaN,NaN,NaN,NaN,40,41,45,error,432.672119140625,noevent,NaN,,Pilot_Chris_VP92,orange,cue_right_6t,cue_right,6t
27,1,1,4,[1 2 4 5],2,26,961,2002.08333333333,NaN,960,2,720,1.5,480,1,2,5,23,0,NaN,NaN,NaN,NaN,40,41,46,error,681.209325790405,noevent,NaN,,Pilot_Chris_VP92,orange,cue_right_6t,cue_right,6t
28,1,1,5,[1 4],1,17,913,1902.08333333333,NaN,912,1.9,960,2,480,1,2,1,17,1,2,2,576,1.2,50,51,56,hit,551.638460159302,hit,412.65230178833,82,Pilot_Chris_VP92,orange,cue_left_3t,cue_left,3t
29,1,1,2,[1 3 4 6],2,26,721,1502.08333333333,NaN,720,1.5,912,1.9,480,1,2,4,20,0,NaN,NaN,NaN,NaN,20,21,26,error,510.203218460083,noevent,NaN,,Pilot_Chris_VP92,orange,cue_right_3t3d,cue_right,3t_3d
30,1,2,1,[1 3 4 6],1,17,769,1602.08333333333,NaN,768,1.6,576,1.2,480,1,2,1,17,0,NaN,NaN,NaN,NaN,10,11,16,hit,423.531007766724,noevent,NaN,,Pilot_Chris_VP92,orange,cue_left_3t3d,cue_left,3t_3d
31,2,1,6,[1 4],2,26,913,1902.08333333333,NaN,912,1.9,720,1.5,480,1,1,4,20,0,NaN,NaN,NaN,NaN,60,61,65,error,356.423950195312,noevent,NaN,,Pilot_Chris_VP92,orange,cue_right_3t,cue_right,3t
32,2,1,5,[1 4],1,17,865,1802.08333333333,NaN,864,1.8,768,1.6,480,1,1,1,17,0,NaN,NaN,NaN,NaN,50,51,55,hit,415.880298614502,noevent,NaN,,Pilot_Chris_VP92,orange,cue_left_3t,cue_left,3t
33,2,1,6,[1 4],2,26,961,2002.08333333333,NaN,960,2,768,1.6,480,1,1,4,20,0,NaN,NaN,NaN,NaN,60,61,65,error,336.320543289185,noevent,NaN,,Pilot_Chris_VP92,orange,cue_right_3t,cue_right,3t
34,2,1,5,[1 4],1,17,865,1802.08333333333,NaN,864,1.8,912,1.9,480,1,1,1,17,0,NaN,NaN,NaN,NaN,50,51,55,hit,410.454082489014,noevent,NaN,,Pilot_Chris_VP92,orange,cue_left_3t,cue_left,3t
35,2,1,4,[1 2 4 5],2,26,817,1702.08333333333,NaN,816,1.7,912,1.9,480,1,2,4,20,0,NaN,NaN,NaN,NaN,40,41,46,hit,467.667245864868,noevent,NaN,,Pilot_Chris_VP92,orange,cue_right_6t,cue_right,6t
36,2,2,4,[1 2 4 5],2,26,961,2002.08333333333,NaN,960,2,576,1.2,480,1,1,5,23,0,NaN,NaN,NaN,NaN,40,41,45,hit,452.589559555054,noevent,NaN,,Pilot_Chris_VP92,orange,cue_right_6t,cue_right,6t
37,2,1,1,[1 3 4 6],1,17,721,1502.08333333333,NaN,720,1.5,720,1.5,480,1,2,1,17,1,2,2,384,0.8,10,11,16,error,515.12885093689,hit,407.16643333435,82,Pilot_Chris_VP92,orange,cue_left_3t3d,cue_left,3t_3d
38,2,1,3,[1 2 4 5],1,17,961,2002.08333333333,NaN,960,2,960,2,480,1,2,1,17,0,NaN,NaN,NaN,NaN,30,31,36,error,518.444538116455,noevent,NaN,,Pilot_Chris_VP92,orange,cue_left_6t,cue_left,6t
39,2,1,4,[1 2 4 5],2,26,817,1702.08333333333,NaN,816,1.7,960,2,480,1,2,5,23,1,2,2,192,0.4,40,41,46,hit,758.310127258301,hit,575.155353546143,82,Pilot_Chris_VP92,orange,cue_right_6t,cue_right,6t
40,2,1,2,[1 3 4 6],2,26,817,1702.08333333333,NaN,816,1.7,816,1.7,480,1,1,4,20,1,1,1,384,0.8,20,21,25,hit,470.541095733643,error,647.572469711304,81,Pilot_Chris_VP92,orange,cue_right_3t3d,cue_right,3t_3d
41,2,1,3,[1 2 4 5],1,17,721,1502.08333333333,NaN,720,1.5,768,1.6,480,1,2,2,26,0,NaN,NaN,NaN,NaN,30,31,36,hit,398.694181442261,noevent,NaN,,Pilot_Chris_VP92,orange,cue_left_6t,cue_left,6t
42,2,1,3,[1 2 4 5],1,17,817,1702.08333333333,NaN,816,1.7,816,1.7,480,1,1,1,17,1,3,1,336,0.7,30,31,35,error,539.271211624146,error,511.421012878418,81,Pilot_Chris_VP92,orange,cue_left_6t,cue_left,6t
43,2,1,1,[1 3 4 6],1,17,865,1802.08333333333,NaN,864,1.8,768,1.6,480,1,2,1,17,0,NaN,NaN,NaN,NaN,10,11,16,error,488.446569442749,noevent,NaN,,Pilot_Chris_VP92,orange,cue_left_3t3d,cue_left,3t_3d
44,2,1,5,[1 4],1,17,913,1902.08333333333,NaN,912,1.9,816,1.7,480,1,1,1,17,1,1,1,336,0.7,50,51,55,hit,400.880718231201,error,447.998094558716,81,Pilot_Chris_VP92,orange,cue_left_3t,cue_left,3t
45,2,1,1,[1 3 4 6],1,17,817,1702.08333333333,NaN,816,1.7,912,1.9,480,1,1,1,17,0,NaN,NaN,NaN,NaN,10,11,15,hit,447.585248947144,noevent,NaN,,Pilot_Chris_VP92,orange,cue_left_3t3d,cue_left,3t_3d
46,2,1,5,[1 4],1,17,865,1802.08333333333,NaN,864,1.8,768,1.6,480,1,2,1,17,1,3,1,384,0.8,50,51,56,hit,393.317317962646,error,374.545288085938,81,Pilot_Chris_VP92,orange,cue_left_3t,cue_left,3t
47,2,1,2,[1 3 4 6],2,26,817,1702.08333333333,NaN,816,1.7,912,1.9,480,1,1,4,20,0,NaN,NaN,NaN,NaN,20,21,25,hit,518.14022064209,noevent,NaN,,Pilot_Chris_VP92,orange,cue_right_3t3d,cue_right,3t_3d
48,2,1,5,[1 4],1,17,865,1802.08333333333,NaN,864,1.8,912,1.9,480,1,2,1,17,1,4,2,432,0.9,50,51,56,hit,441.031503677368,hit,395.995712280274,82,Pilot_Chris_VP92,orange,cue_left_3t,cue_left,3t
49,2,1,1,[1 3 4 6],1,17,913,1902.08333333333,NaN,912,1.9,720,1.5,480,1,2,1,17,1,3,1,288,0.6,10,11,16,hit,391.299343109131,error,367.239618301391,81,Pilot_Chris_VP92,orange,cue_left_3t3d,cue_left,3t_3d
50,2,1,4,[1 2 4 5],2,26,913,1902.08333333333,NaN,912,1.9,816,1.7,480,1,1,5,23,0,NaN,NaN,NaN,NaN,40,41,45,hit,398.406648635864,noevent,NaN,,Pilot_Chris_VP92,orange,cue_right_6t,cue_right,6t
51,2,1,3,[1 2 4 5],1,17,817,1702.08333333333,NaN,816,1.7,816,1.7,480,1,2,2,26,0,NaN,NaN,NaN,NaN,30,31,36,hit,387.343502044678,noevent,NaN,,Pilot_Chris_VP92,orange,cue_left_6t,cue_left,6t
52,2,1,4,[1 2 4 5],2,26,817,1702.08333333333,NaN,816,1.7,768,1.6,480,1,1,5,23,0,NaN,NaN,NaN,NaN,40,41,45,hit,374.474239349365,noevent,NaN,,Pilot_Chris_VP92,orange,cue_right_6t,cue_right,6t
53,2,1,2,[1 3 4 6],2,26,961,2002.08333333333,NaN,960,2,864,1.8,480,1,1,4,20,1,2,2,240,0.5,20,21,25,error,410.504055023193,hit,391.539812088013,82,Pilot_Chris_VP92,orange,cue_right_3t3d,cue_right,3t_3d
54,2,1,6,[1 4],2,26,913,1902.08333333333,NaN,912,1.9,720,1.5,480,1,1,4,20,0,NaN,NaN,NaN,NaN,60,61,65,hit,416.720962524414,noevent,NaN,,Pilot_Chris_VP92,orange,cue_right_3t,cue_right,3t
55,2,1,1,[1 3 4 6],1,17,913,1902.08333333333,NaN,912,1.9,768,1.6,480,1,2,1,17,1,1,1,624,1.3,10,11,16,hit,557.862043380737,error,682.878446578979,81,Pilot_Chris_VP92,orange,cue_left_3t3d,cue_left,3t_3d
56,2,2,1,[1 3 4 6],1,17,721,1502.08333333333,NaN,720,1.5,480,1,480,1,2,1,17,0,NaN,NaN,NaN,NaN,10,11,16,hit,583.515167236328,noevent,NaN,,Pilot_Chris_VP92,orange,cue_left_3t3d,cue_left,3t_3d
57,2,1,2,[1 3 4 6],2,26,913,1902.08333333333,NaN,912,1.9,720,1.5,480,1,2,4,20,0,NaN,NaN,NaN,NaN,20,21,26,hit,646.79012298584,noevent,NaN,,Pilot_Chris_VP92,orange,cue_right_3t3d,cue_right,3t_3d
58,2,2,2,[1 3 4 6],2,26,961,2002.08333333333,NaN,960,2,576,1.2,480,1,1,4,20,1,4,2,576,1.2,20,21,25,hit,442.868995666504,hit,493.757534027099,82,Pilot_Chris_VP92,orange,cue_right_3t3d,cue_right,3t_3d
59,2,1,1,[1 3 4 6],1,17,961,2002.08333333333,NaN,960,2,912,1.9,480,1,1,1,17,0,NaN,NaN,NaN,NaN,10,11,15,error,566.691255569458,noevent,NaN,,Pilot_Chris_VP92,orange,cue_left_3t3d,cue_left,3t_3d
60,2,1,4,[1 2 4 5],2,26,721,1502.08333333333,NaN,720,1.5,864,1.8,480,1,2,5,23,0,NaN,NaN,NaN,NaN,40,41,46,hit,420.143556594849,noevent,NaN,,Pilot_Chris_VP92,orange,cue_right_6t,cue_right,6t
61,3,1,5,[1 4],1,17,913,1902.08333333333,NaN,912,1.9,720,1.5,480,1,1,1,17,0,NaN,NaN,NaN,NaN,50,51,55,hit,400.222396850586,noevent,NaN,,Pilot_Chris_VP92,orange,cue_left_3t,cue_left,3t
62,3,1,2,[1 3 4 6],2,26,769,1602.08333333333,NaN,768,1.6,864,1.8,480,1,2,4,20,1,2,2,192,0.4,20,21,26,hit,423.971271514893,hit,432.981586456299,82,Pilot_Chris_VP92,orange,cue_right_3t3d,cue_right,3t_3d
63,3,1,4,[1 2 4 5],2,26,961,2002.08333333333,NaN,960,2,912,1.9,480,1,1,4,20,1,4,2,672,1.4,40,41,45,error,548.875188827515,hit,472.910022735595,82,Pilot_Chris_VP92,orange,cue_right_6t,cue_right,6t
64,3,2,1,[1 3 4 6],1,17,865,1802.08333333333,NaN,864,1.8,336,0.7,480,1,2,1,17,1,4,2,336,0.7,10,11,16,hit,457.797765731812,hit,380.939054489136,82,Pilot_Chris_VP92,orange,cue_left_3t3d,cue_left,3t_3d
65,3,1,5,[1 4],1,17,817,1702.08333333333,NaN,816,1.7,720,1.5,480,1,2,1,17,1,4,2,240,0.5,50,51,56,hit,388.107109069824,hit,338.21964263916,82,Pilot_Chris_VP92,orange,cue_left_3t,cue_left,3t
66,3,2,3,[1 2 4 5],1,17,961,2002.08333333333,NaN,960,2,336,0.7,480,1,1,1,17,0,NaN,NaN,NaN,NaN,30,31,35,hit,409.421968460083,noevent,NaN,,Pilot_Chris_VP92,orange,cue_left_6t,cue_left,6t
67,3,1,6,[1 4],2,26,913,1902.08333333333,NaN,912,1.9,864,1.8,480,1,2,4,20,0,NaN,NaN,NaN,NaN,60,61,66,hit,423.635053634644,noevent,NaN,,Pilot_Chris_VP92,orange,cue_right_3t,cue_right,3t
68,3,2,4,[1 2 4 5],2,26,769,1602.08333333333,NaN,768,1.6,672,1.4,480,1,2,5,23,0,NaN,NaN,NaN,NaN,40,41,46,hit,663.700580596924,noevent,NaN,,Pilot_Chris_VP92,orange,cue_right_6t,cue_right,6t
69,3,2,6,[1 4],2,26,961,2002.08333333333,NaN,960,2,528,1.1,480,1,2,4,20,0,NaN,NaN,NaN,NaN,60,61,66,hit,370.694065093994,noevent,NaN,,Pilot_Chris_VP92,orange,cue_right_3t,cue_right,3t
70,3,1,5,[1 4],1,17,817,1702.08333333333,NaN,816,1.7,960,2,480,1,2,1,17,0,NaN,NaN,NaN,NaN,50,51,56,hit,385.507154464722,noevent,NaN,,Pilot_Chris_VP92,orange,cue_left_3t,cue_left,3t
71,3,1,3,[1 2 4 5],1,17,769,1602.08333333333,NaN,768,1.6,720,1.5,480,1,1,2,26,0,NaN,NaN,NaN,NaN,30,31,35,hit,516.610765457153,noevent,NaN,,Pilot_Chris_VP92,orange,cue_left_6t,cue_left,6t
72,3,1,5,[1 4],1,17,721,1502.08333333333,NaN,720,1.5,816,1.7,480,1,1,1,17,1,1,1,336,0.7,50,51,55,hit,479.104089736938,error,443.023252487182,81,Pilot_Chris_VP92,orange,cue_left_3t,cue_left,3t
73,3,1,5,[1 4],1,17,865,1802.08333333333,NaN,864,1.8,864,1.8,480,1,1,1,17,0,NaN,NaN,NaN,NaN,50,51,55,hit,414.535427093506,noevent,NaN,,Pilot_Chris_VP92,orange,cue_left_3t,cue_left,3t
74,3,2,4,[1 2 4 5],2,26,961,2002.08333333333,NaN,960,2,432,0.9,480,1,2,4,20,0,NaN,NaN,NaN,NaN,40,41,46,error,690.88397026062,noevent,NaN,,Pilot_Chris_VP92,orange,cue_right_6t,cue_right,6t
75,3,1,2,[1 3 4 6],2,26,817,1702.08333333333,NaN,816,1.7,768,1.6,480,1,1,4,20,1,4,2,336,0.7,20,21,25,error,611.049365997314,hit,323.307800292969,82,Pilot_Chris_VP92,orange,cue_right_3t3d,cue_right,3t_3d
76,3,1,2,[1 3 4 6],2,26,721,1502.08333333333,NaN,720,1.5,720,1.5,480,1,1,4,20,1,1,1,240,0.5,20,21,25,hit,621.325492858887,error,454.334259033203,81,Pilot_Chris_VP92,orange,cue_right_3t3d,cue_right,3t_3d
77,3,2,5,[1 4],1,17,913,1902.08333333333,NaN,912,1.9,384,0.8,480,1,1,1,17,0,NaN,NaN,NaN,NaN,50,51,55,hit,407.2416305542,noevent,NaN,,Pilot_Chris_VP92,orange,cue_left_3t,cue_left,3t
78,3,1,1,[1 3 4 6],1,17,769,1602.08333333333,NaN,768,1.6,864,1.8,480,1,2,1,17,1,4,2,432,0.9,10,11,16,error,396.884059906006,hit,360.719299316406,82,Pilot_Chris_VP92,orange,cue_left_3t3d,cue_left,3t_3d
79,3,2,4,[1 2 4 5],2,26,865,1802.08333333333,NaN,864,1.8,432,0.9,480,1,2,4,20,0,NaN,NaN,NaN,NaN,40,41,46,hit,434.805202484131,noevent,NaN,,Pilot_Chris_VP92,orange,cue_right_6t,cue_right,6t
80,3,2,2,[1 3 4 6],2,26,769,1602.08333333333,NaN,768,1.6,336,0.7,480,1,2,4,20,0,NaN,NaN,NaN,NaN,20,21,26,hit,434.82084274292,noevent,NaN,,Pilot_Chris_VP92,orange,cue_right_3t3d,cue_right,3t_3d
81,3,1,4,[1 2 4 5],2,26,769,1602.08333333333,NaN,768,1.6,864,1.8,480,1,1,5,23,0,NaN,NaN,NaN,NaN,40,41,45,hit,561.963891983032,noevent,NaN,,Pilot_Chris_VP92,orange,cue_right_6t,cue_right,6t
82,3,1,4,[1 2 4 5],2,26,865,1802.08333333333,NaN,864,1.8,816,1.7,480,1,2,5,23,0,NaN,NaN,NaN,NaN,40,41,46,error,463.205337524414,noevent,NaN,,Pilot_Chris_VP92,orange,cue_right_6t,cue_right,6t
83,3,1,2,[1 3 4 6],2,26,721,1502.08333333333,NaN,720,1.5,864,1.8,480,1,2,4,20,1,3,1,336,0.7,20,21,26,error,494.492959976196,error,367.516326904297,81,Pilot_Chris_VP92,orange,cue_right_3t3d,cue_right,3t_3d
84,3,1,4,[1 2 4 5],2,26,961,2002.08333333333,NaN,960,2,816,1.7,480,1,2,5,23,0,NaN,NaN,NaN,NaN,40,41,46,hit,417.34414100647,noevent,NaN,,Pilot_Chris_VP92,orange,cue_right_6t,cue_right,6t
85,3,1,2,[1 3 4 6],2,26,865,1802.08333333333,NaN,864,1.8,960,2,480,1,1,4,20,0,NaN,NaN,NaN,NaN,20,21,25,hit,558.050107955933,noevent,NaN,,Pilot_Chris_VP92,orange,cue_right_3t3d,cue_right,3t_3d
86,3,1,3,[1 2 4 5],1,17,721,1502.08333333333,NaN,720,1.5,816,1.7,480,1,2,2,26,1,1,1,288,0.6,30,31,36,hit,474.777746200562,error,929.76655960083,81,Pilot_Chris_VP92,orange,cue_left_6t,cue_left,6t
87,3,1,4,[1 2 4 5],2,26,769,1602.08333333333,NaN,768,1.6,960,2,480,1,2,4,20,1,3,1,192,0.4,40,41,46,hit,554.521703720093,error,492.554998397827,81,Pilot_Chris_VP92,orange,cue_right_6t,cue_right,6t
88,3,1,6,[1 4],2,26,865,1802.08333333333,NaN,864,1.8,816,1.7,480,1,2,4,20,0,NaN,NaN,NaN,NaN,60,61,66,hit,426.127672195435,noevent,NaN,,Pilot_Chris_VP92,orange,cue_right_3t,cue_right,3t
89,3,1,5,[1 4],1,17,865,1802.08333333333,NaN,864,1.8,816,1.7,480,1,1,1,17,0,NaN,NaN,NaN,NaN,50,51,55,hit,403.722286224365,noevent,NaN,,Pilot_Chris_VP92,orange,cue_left_3t,cue_left,3t
90,3,2,6,[1 4],2,26,721,1502.08333333333,NaN,720,1.5,624,1.3,480,1,1,4,20,0,NaN,NaN,NaN,NaN,60,61,65,error,457.12251663208,noevent,NaN,,Pilot_Chris_VP92,orange,cue_right_3t,cue_right,3t
91,4,1,1,[1 3 4 6],1,17,913,1902.08333333333,NaN,912,1.9,768,1.6,480,1,1,1,17,0,NaN,NaN,NaN,NaN,10,11,15,hit,426.492691040039,noevent,NaN,,Pilot_Chris_VP92,orange,cue_left_3t3d,cue_left,3t_3d
92,4,1,2,[1 3 4 6],2,26,817,1702.08333333333,NaN,816,1.7,864,1.8,480,1,2,4,20,0,NaN,NaN,NaN,NaN,20,21,26,hit,460.917472839355,noevent,NaN,,Pilot_Chris_VP92,orange,cue_right_3t3d,cue_right,3t_3d
93,4,1,3,[1 2 4 5],1,17,865,1802.08333333333,NaN,864,1.8,912,1.9,480,1,1,2,26,0,NaN,NaN,NaN,NaN,30,31,35,hit,722.175645828247,noevent,NaN,,Pilot_Chris_VP92,orange,cue_left_6t,cue_left,6t
94,4,1,1,[1 3 4 6],1,17,721,1502.08333333333,NaN,720,1.5,912,1.9,480,1,2,1,17,1,2,2,144,0.3,10,11,16,hit,502.1315574646,hit,498.136711120605,82,Pilot_Chris_VP92,orange,cue_left_3t3d,cue_left,3t_3d
95,4,1,5,[1 4],1,17,721,1502.08333333333,NaN,720,1.5,768,1.6,480,1,1,1,17,0,NaN,NaN,NaN,NaN,50,51,55,hit,515.617752075195,noevent,NaN,,Pilot_Chris_VP92,orange,cue_left_3t,cue_left,3t
96,4,1,6,[1 4],2,26,865,1802.08333333333,NaN,864,1.8,768,1.6,480,1,1,4,20,1,4,2,144,0.3,60,61,65,hit,372.973537445068,hit,383.994054794312,82,Pilot_Chris_VP92,orange,cue_right_3t,cue_right,3t
97,4,2,6,[1 4],2,26,817,1702.08333333333,NaN,816,1.7,384,0.8,480,1,1,4,20,1,2,2,480,1,60,61,65,hit,561.577558517456,hit,480.64398765564,82,Pilot_Chris_VP92,orange,cue_right_3t,cue_right,3t
98,4,1,2,[1 3 4 6],2,26,769,1602.08333333333,NaN,768,1.6,768,1.6,480,1,1,4,20,0,NaN,NaN,NaN,NaN,20,21,25,hit,475.908803939819,noevent,NaN,,Pilot_Chris_VP92,orange,cue_right_3t3d,cue_right,3t_3d
99,4,1,2,[1 3 4 6],2,26,721,1502.08333333333,NaN,720,1.5,768,1.6,480,1,1,4,20,0,NaN,NaN,NaN,NaN,20,21,25,hit,624.577188491821,noevent,NaN,,Pilot_Chris_VP92,orange,cue_right_3t3d,cue_right,3t_3d
100,4,1,3,[1 2 4 5],1,17,961,2002.08333333333,NaN,960,2,816,1.7,480,1,1,2,26,0,NaN,NaN,NaN,NaN,30,31,35,hit,454.489994049072,noevent,NaN,,Pilot_Chris_VP92,orange,cue_left_6t,cue_left,6t
101,4,2,3,[1 2 4 5],1,17,913,1902.08333333333,NaN,912,1.9,528,1.1,480,1,2,2,26,1,3,1,432,0.9,30,31,36,hit,381.84642791748,error,483.798837661743,81,Pilot_Chris_VP92,orange,cue_left_6t,cue_left,6t
102,4,1,2,[1 3 4 6],2,26,961,2002.08333333333,NaN,960,2,720,1.5,480,1,2,4,20,1,4,2,384,0.8,20,21,26,hit,520.375728607178,hit,351.442527770996,82,Pilot_Chris_VP92,orange,cue_right_3t3d,cue_right,3t_3d
103,4,1,2,[1 3 4 6],2,26,721,1502.08333333333,NaN,720,1.5,720,1.5,480,1,1,4,20,1,3,1,144,0.3,20,21,25,hit,533.048152923584,error,352.247190475464,81,Pilot_Chris_VP92,orange,cue_right_3t3d,cue_right,3t_3d
104,4,1,3,[1 2 4 5],1,17,865,1802.08333333333,NaN,864,1.8,960,2,480,1,2,2,26,0,NaN,NaN,NaN,NaN,30,31,36,hit,431.905937194824,noevent,NaN,,Pilot_Chris_VP92,orange,cue_left_6t,cue_left,6t
105,4,1,5,[1 4],1,17,961,2002.08333333333,NaN,960,2,816,1.7,480,1,2,1,17,0,NaN,NaN,NaN,NaN,50,51,56,hit,401.189374923706,noevent,NaN,,Pilot_Chris_VP92,orange,cue_left_3t,cue_left,3t
106,4,1,3,[1 2 4 5],1,17,817,1702.08333333333,NaN,816,1.7,720,1.5,480,1,1,1,17,0,NaN,NaN,NaN,NaN,30,31,35,hit,471.823024749756,noevent,NaN,,Pilot_Chris_VP92,orange,cue_left_6t,cue_left,6t
107,4,2,1,[1 3 4 6],1,17,865,1802.08333333333,NaN,864,1.8,672,1.4,480,1,1,1,17,0,NaN,NaN,NaN,NaN,10,11,15,hit,566.83235168457,noevent,NaN,,Pilot_Chris_VP92,orange,cue_left_3t3d,cue_left,3t_3d
108,4,1,6,[1 4],2,26,721,1502.08333333333,NaN,720,1.5,768,1.6,480,1,2,4,20,0,NaN,NaN,NaN,NaN,60,61,66,hit,425.837659835815,noevent,NaN,,Pilot_Chris_VP92,orange,cue_right_3t,cue_right,3t
109,4,1,2,[1 3 4 6],2,26,913,1902.08333333333,NaN,912,1.9,912,1.9,480,1,1,4,20,0,NaN,NaN,NaN,NaN,20,21,25,error,434.563112258911,noevent,NaN,,Pilot_Chris_VP92,orange,cue_right_3t3d,cue_right,3t_3d
110,4,1,1,[1 3 4 6],1,17,865,1802.08333333333,NaN,864,1.8,912,1.9,480,1,1,1,17,0,NaN,NaN,NaN,NaN,10,11,15,hit,520.847368240356,noevent,NaN,,Pilot_Chris_VP92,orange,cue_left_3t3d,cue_left,3t_3d
111,4,1,2,[1 3 4 6],2,26,913,1902.08333333333,NaN,912,1.9,960,2,480,1,2,4,20,0,NaN,NaN,NaN,NaN,20,21,26,hit,533.386325836182,noevent,NaN,,Pilot_Chris_VP92,orange,cue_right_3t3d,cue_right,3t_3d
112,4,1,1,[1 3 4 6],1,17,865,1802.08333333333,NaN,864,1.8,768,1.6,480,1,2,1,17,0,NaN,NaN,NaN,NaN,10,11,16,hit,824.968433380127,noevent,NaN,,Pilot_Chris_VP92,orange,cue_left_3t3d,cue_left,3t_3d
113,4,1,2,[1 3 4 6],2,26,865,1802.08333333333,NaN,864,1.8,720,1.5,480,1,2,4,20,0,NaN,NaN,NaN,NaN,20,21,26,hit,530.645084381104,noevent,NaN,,Pilot_Chris_VP92,orange,cue_right_3t3d,cue_right,3t_3d
114,4,1,6,[1 4],2,26,817,1702.08333333333,NaN,816,1.7,768,1.6,480,1,1,4,20,0,NaN,NaN,NaN,NaN,60,61,65,hit,538.405609130859,noevent,NaN,,Pilot_Chris_VP92,orange,cue_right_3t,cue_right,3t
115,4,1,3,[1 2 4 5],1,17,721,1502.08333333333,NaN,720,1.5,960,2,480,1,2,2,26,0,NaN,NaN,NaN,NaN,30,31,36,hit,706.440687179565,noevent,NaN,,Pilot_Chris_VP92,orange,cue_left_6t,cue_left,6t
116,4,1,3,[1 2 4 5],1,17,817,1702.08333333333,NaN,816,1.7,816,1.7,480,1,2,2,26,1,2,2,336,0.7,30,31,36,hit,646.999454498291,hit,477.005290985107,82,Pilot_Chris_VP92,orange,cue_left_6t,cue_left,6t
117,4,1,5,[1 4],1,17,721,1502.08333333333,NaN,720,1.5,864,1.8,480,1,1,1,17,1,2,2,144,0.3,50,51,55,hit,365.096998214722,hit,487.926197052002,82,Pilot_Chris_VP92,orange,cue_left_3t,cue_left,3t
118,4,1,1,[1 3 4 6],1,17,721,1502.08333333333,NaN,720,1.5,768,1.6,480,1,1,1,17,0,NaN,NaN,NaN,NaN,10,11,15,hit,527.862215042114,noevent,NaN,,Pilot_Chris_VP92,orange,cue_left_3t3d,cue_left,3t_3d
119,4,1,3,[1 2 4 5],1,17,913,1902.08333333333,NaN,912,1.9,720,1.5,480,1,1,2,26,0,NaN,NaN,NaN,NaN,30,31,35,hit,413.914060592651,noevent,NaN,,Pilot_Chris_VP92,orange,cue_left_6t,cue_left,6t
120,4,1,6,[1 4],2,26,769,1602.08333333333,NaN,768,1.6,912,1.9,480,1,1,4,20,0,NaN,NaN,NaN,NaN,60,61,65,hit,379.111289978027,noevent,NaN,,Pilot_Chris_VP92,orange,cue_right_3t,cue_right,3t
121,5,1,5,[1 4],1,17,817,1702.08333333333,NaN,816,1.7,768,1.6,480,1,2,1,17,1,1,1,288,0.6,50,51,56,error,463.505697250366,error,641.482973098755,81,Pilot_Chris_VP92,orange,cue_left_3t,cue_left,3t
122,5,1,3,[1 2 4 5],1,17,769,1602.08333333333,NaN,768,1.6,864,1.8,480,1,1,1,17,1,3,1,336,0.7,30,31,35,hit,512.57381439209,error,448.679256439209,81,Pilot_Chris_VP92,orange,cue_left_6t,cue_left,6t
123,5,1,3,[1 2 4 5],1,17,721,1502.08333333333,NaN,720,1.5,912,1.9,480,1,2,1,17,0,NaN,NaN,NaN,NaN,30,31,36,hit,483.733987808228,noevent,NaN,,Pilot_Chris_VP92,orange,cue_left_6t,cue_left,6t
124,5,1,2,[1 3 4 6],2,26,817,1702.08333333333,NaN,816,1.7,720,1.5,480,1,2,4,20,0,NaN,NaN,NaN,NaN,20,21,26,hit,363.86137008667,noevent,NaN,,Pilot_Chris_VP92,orange,cue_right_3t3d,cue_right,3t_3d
125,5,1,4,[1 2 4 5],2,26,721,1502.08333333333,NaN,720,1.5,768,1.6,480,1,1,4,20,0,NaN,NaN,NaN,NaN,40,41,45,error,512.41888999939,noevent,NaN,,Pilot_Chris_VP92,orange,cue_right_6t,cue_right,6t
126,5,2,1,[1 3 4 6],1,17,817,1702.08333333333,NaN,816,1.7,576,1.2,480,1,1,1,17,0,NaN,NaN,NaN,NaN,10,11,15,error,435.61897277832,noevent,NaN,,Pilot_Chris_VP92,orange,cue_left_3t3d,cue_left,3t_3d
127,5,1,3,[1 2 4 5],1,17,865,1802.08333333333,NaN,864,1.8,912,1.9,480,1,2,1,17,0,NaN,NaN,NaN,NaN,30,31,36,hit,460.727739334106,noevent,NaN,,Pilot_Chris_VP92,orange,cue_left_6t,cue_left,6t
128,5,1,5,[1 4],1,17,817,1702.08333333333,NaN,816,1.7,768,1.6,480,1,2,1,17,1,2,2,288,0.6,50,51,56,hit,407.074403762817,hit,387.114906311035,82,Pilot_Chris_VP92,orange,cue_left_3t,cue_left,3t
129,5,1,3,[1 2 4 5],1,17,961,2002.08333333333,NaN,960,2,720,1.5,480,1,2,2,26,0,NaN,NaN,NaN,NaN,30,31,36,hit,469.388246536255,noevent,NaN,,Pilot_Chris_VP92,orange,cue_left_6t,cue_left,6t
130,5,1,6,[1 4],2,26,721,1502.08333333333,NaN,720,1.5,912,1.9,480,1,1,4,20,0,NaN,NaN,NaN,NaN,60,61,65,hit,810.486173629761,noevent,NaN,,Pilot_Chris_VP92,orange,cue_right_3t,cue_right,3t
131,5,2,6,[1 4],2,26,769,1602.08333333333,NaN,768,1.6,672,1.4,480,1,1,4,20,1,1,1,240,0.5,60,61,65,hit,553.555965423584,error,589.63418006897,81,Pilot_Chris_VP92,orange,cue_right_3t,cue_right,3t
132,5,2,3,[1 2 4 5],1,17,721,1502.08333333333,NaN,720,1.5,336,0.7,480,1,2,1,17,0,NaN,NaN,NaN,NaN,30,31,36,hit,515.056657791138,noevent,NaN,,Pilot_Chris_VP92,orange,cue_left_6t,cue_left,6t
133,5,1,3,[1 2 4 5],1,17,817,1702.08333333333,NaN,816,1.7,720,1.5,480,1,2,2,26,0,NaN,NaN,NaN,NaN,30,31,36,error,530.447053909302,noevent,NaN,,Pilot_Chris_VP92,orange,cue_left_6t,cue_left,6t
134,5,1,5,[1 4],1,17,865,1802.08333333333,NaN,864,1.8,960,2,480,1,1,1,17,0,NaN,NaN,NaN,NaN,50,51,55,hit,547.8684425354,noevent,NaN,,Pilot_Chris_VP92,orange,cue_left_3t,cue_left,3t
135,5,2,2,[1 3 4 6],2,26,865,1802.08333333333,NaN,864,1.8,528,1.1,480,1,2,4,20,1,1,1,528,1.1,20,21,26,hit,614.85800743103,error,603.994512557984,81,Pilot_Chris_VP92,orange,cue_right_3t3d,cue_right,3t_3d
136,5,1,2,[1 3 4 6],2,26,913,1902.08333333333,NaN,912,1.9,960,2,480,1,1,4,20,0,NaN,NaN,NaN,NaN,20,21,25,error,639.084434509277,noevent,NaN,,Pilot_Chris_VP92,orange,cue_right_3t3d,cue_right,3t_3d
137,5,1,3,[1 2 4 5],1,17,769,1602.08333333333,NaN,768,1.6,912,1.9,480,1,1,2,26,1,3,1,336,0.7,30,31,35,error,595.131635665894,error,348.218727111816,81,Pilot_Chris_VP92,orange,cue_left_6t,cue_left,6t
138,5,1,5,[1 4],1,17,769,1602.08333333333,NaN,768,1.6,864,1.8,480,1,1,1,17,0,NaN,NaN,NaN,NaN,50,51,55,error,377.060270309448,noevent,NaN,,Pilot_Chris_VP92,orange,cue_left_3t,cue_left,3t
139,5,1,5,[1 4],1,17,961,2002.08333333333,NaN,960,2,720,1.5,480,1,2,1,17,0,NaN,NaN,NaN,NaN,50,51,56,hit,447.604417800903,noevent,NaN,,Pilot_Chris_VP92,orange,cue_left_3t,cue_left,3t
140,5,1,3,[1 2 4 5],1,17,721,1502.08333333333,NaN,720,1.5,912,1.9,480,1,2,2,26,0,NaN,NaN,NaN,NaN,30,31,36,error,534.494972229004,noevent,NaN,,Pilot_Chris_VP92,orange,cue_left_6t,cue_left,6t
141,5,1,6,[1 4],2,26,721,1502.08333333333,NaN,720,1.5,960,2,480,1,2,4,20,0,NaN,NaN,NaN,NaN,60,61,66,hit,382.474422454834,noevent,NaN,,Pilot_Chris_VP92,orange,cue_right_3t,cue_right,3t
142,5,1,2,[1 3 4 6],2,26,865,1802.08333333333,NaN,864,1.8,720,1.5,480,1,1,4,20,0,NaN,NaN,NaN,NaN,20,21,25,hit,601.087522506714,noevent,NaN,,Pilot_Chris_VP92,orange,cue_right_3t3d,cue_right,3t_3d
143,5,1,6,[1 4],2,26,817,1702.08333333333,NaN,816,1.7,960,2,480,1,1,4,20,0,NaN,NaN,NaN,NaN,60,61,65,hit,652.773904800415,noevent,NaN,,Pilot_Chris_VP92,orange,cue_right_3t,cue_right,3t
144,5,1,5,[1 4],1,17,913,1902.08333333333,NaN,912,1.9,720,1.5,480,1,2,1,17,1,3,1,240,0.5,50,51,56,hit,500.332450866699,error,597.453117370605,81,Pilot_Chris_VP92,orange,cue_left_3t,cue_left,3t
145,5,1,4,[1 2 4 5],2,26,913,1902.08333333333,NaN,912,1.9,864,1.8,480,1,1,4,20,0,NaN,NaN,NaN,NaN,40,41,45,hit,555.921363830566,noevent,NaN,,Pilot_Chris_VP92,orange,cue_right_6t,cue_right,6t
146,5,1,2,[1 3 4 6],2,26,913,1902.08333333333,NaN,912,1.9,720,1.5,480,1,1,4,20,0,NaN,NaN,NaN,NaN,20,21,25,error,611.503219604492,noevent,NaN,,Pilot_Chris_VP92,orange,cue_right_3t3d,cue_right,3t_3d
147,5,1,2,[1 3 4 6],2,26,817,1702.08333333333,NaN,816,1.7,816,1.7,480,1,2,4,20,1,2,2,480,1,20,21,26,hit,491.632556915283,hit,526.612758636475,82,Pilot_Chris_VP92,orange,cue_right_3t3d,cue_right,3t_3d
148,5,1,2,[1 3 4 6],2,26,961,2002.08333333333,NaN,960,2,912,1.9,480,1,2,4,20,0,NaN,NaN,NaN,NaN,20,21,26,hit,679.683780670166,noevent,NaN,,Pilot_Chris_VP92,orange,cue_right_3t3d,cue_right,3t_3d
149,5,1,4,[1 2 4 5],2,26,961,2002.08333333333,NaN,960,2,960,2,480,1,2,4,20,0,NaN,NaN,NaN,NaN,40,41,46,hit,509.192705154419,noevent,NaN,,Pilot_Chris_VP92,orange,cue_right_6t,cue_right,6t
150,5,2,2,[1 3 4 6],2,26,913,1902.08333333333,NaN,912,1.9,432,0.9,480,1,2,4,20,0,NaN,NaN,NaN,NaN,20,21,26,hit,445.53918838501,noevent,NaN,,Pilot_Chris_VP92,orange,cue_right_3t3d,cue_right,3t_3d
151,6,1,6,[1 4],2,26,769,1602.08333333333,NaN,768,1.6,864,1.8,480,1,2,4,20,0,NaN,NaN,NaN,NaN,60,61,66,hit,464.456653594971,noevent,NaN,,Pilot_Chris_VP92,orange,cue_right_3t,cue_right,3t
152,6,2,5,[1 4],1,17,865,1802.08333333333,NaN,864,1.8,480,1,480,1,2,1,17,0,NaN,NaN,NaN,NaN,50,51,56,hit,438.39259147644,noevent,NaN,,Pilot_Chris_VP92,orange,cue_left_3t,cue_left,3t
153,6,1,2,[1 3 4 6],2,26,817,1702.08333333333,NaN,816,1.7,960,2,480,1,1,4,20,0,NaN,NaN,NaN,NaN,20,21,25,hit,672.88498878479,noevent,NaN,,Pilot_Chris_VP92,orange,cue_right_3t3d,cue_right,3t_3d
154,6,1,2,[1 3 4 6],2,26,961,2002.08333333333,NaN,960,2,912,1.9,480,1,1,4,20,0,NaN,NaN,NaN,NaN,20,21,25,hit,799.559688568115,noevent,NaN,,Pilot_Chris_VP92,orange,cue_right_3t3d,cue_right,3t_3d
155,6,1,6,[1 4],2,26,817,1702.08333333333,NaN,816,1.7,720,1.5,480,1,1,4,20,0,NaN,NaN,NaN,NaN,60,61,65,hit,600.415515899658,noevent,NaN,,Pilot_Chris_VP92,orange,cue_right_3t,cue_right,3t
156,6,1,1,[1 3 4 6],1,17,913,1902.08333333333,NaN,912,1.9,768,1.6,480,1,2,1,17,0,NaN,NaN,NaN,NaN,10,11,16,hit,514.824390411377,noevent,NaN,,Pilot_Chris_VP92,orange,cue_left_3t3d,cue_left,3t_3d
157,6,1,3,[1 2 4 5],1,17,817,1702.08333333333,NaN,816,1.7,960,2,480,1,2,1,17,0,NaN,NaN,NaN,NaN,30,31,36,hit,575.010108947754,noevent,NaN,,Pilot_Chris_VP92,orange,cue_left_6t,cue_left,6t
158,6,1,5,[1 4],1,17,961,2002.08333333333,NaN,960,2,720,1.5,480,1,2,1,17,0,NaN,NaN,NaN,NaN,50,51,56,error,452.13794708252,noevent,NaN,,Pilot_Chris_VP92,orange,cue_left_3t,cue_left,3t
159,6,1,5,[1 4],1,17,721,1502.08333333333,NaN,720,1.5,864,1.8,480,1,2,1,17,0,NaN,NaN,NaN,NaN,50,51,56,hit,429.633092880249,noevent,NaN,,Pilot_Chris_VP92,orange,cue_left_3t,cue_left,3t
160,6,1,2,[1 3 4 6],2,26,865,1802.08333333333,NaN,864,1.8,960,2,480,1,2,4,20,0,NaN,NaN,NaN,NaN,20,21,26,hit,496.129703521729,noevent,NaN,,Pilot_Chris_VP92,orange,cue_right_3t3d,cue_right,3t_3d
161,6,1,6,[1 4],2,26,961,2002.08333333333,NaN,960,2,864,1.8,480,1,2,4,20,0,NaN,NaN,NaN,NaN,60,61,66,hit,522.118997573853,noevent,NaN,,Pilot_Chris_VP92,orange,cue_right_3t,cue_right,3t
162,6,1,6,[1 4],2,26,865,1802.08333333333,NaN,864,1.8,720,1.5,480,1,1,4,20,1,3,1,432,0.9,60,61,65,hit,636.065912246704,error,507.021999359131,81,Pilot_Chris_VP92,orange,cue_right_3t,cue_right,3t
163,6,1,5,[1 4],1,17,721,1502.08333333333,NaN,720,1.5,864,1.8,480,1,2,1,17,0,NaN,NaN,NaN,NaN,50,51,56,hit,391.062450408936,noevent,NaN,,Pilot_Chris_VP92,orange,cue_left_3t,cue_left,3t
164,6,1,1,[1 3 4 6],1,17,769,1602.08333333333,NaN,768,1.6,912,1.9,480,1,1,1,17,0,NaN,NaN,NaN,NaN,10,11,15,error,443.155527114868,noevent,NaN,,Pilot_Chris_VP92,orange,cue_left_3t3d,cue_left,3t_3d
165,6,1,3,[1 2 4 5],1,17,721,1502.08333333333,NaN,720,1.5,960,2,480,1,1,1,17,1,1,1,192,0.4,30,31,35,hit,643.922328948975,error,433.18042755127,81,Pilot_Chris_VP92,orange,cue_left_6t,cue_left,6t
166,6,1,1,[1 3 4 6],1,17,961,2002.08333333333,NaN,960,2,960,2,480,1,1,1,17,0,NaN,NaN,NaN,NaN,10,11,15,hit,625.055313110352,noevent,NaN,,Pilot_Chris_VP92,orange,cue_left_3t3d,cue_left,3t_3d
167,6,1,3,[1 2 4 5],1,17,769,1602.08333333333,NaN,768,1.6,864,1.8,480,1,2,1,17,0,NaN,NaN,NaN,NaN,30,31,36,hit,496.740198135376,noevent,NaN,,Pilot_Chris_VP92,orange,cue_left_6t,cue_left,6t
168,6,1,5,[1 4],1,17,769,1602.08333333333,NaN,768,1.6,912,1.9,480,1,2,1,17,1,2,2,240,0.5,50,51,56,hit,587.607860565186,hit,400.566101074219,82,Pilot_Chris_VP92,orange,cue_left_3t,cue_left,3t
169,6,1,4,[1 2 4 5],2,26,961,2002.08333333333,NaN,960,2,960,2,480,1,1,4,20,1,3,1,384,0.8,40,41,45,error,528.921127319336,error,471.198749542236,81,Pilot_Chris_VP92,orange,cue_right_6t,cue_right,6t
170,6,2,5,[1 4],1,17,721,1502.08333333333,NaN,720,1.5,528,1.1,480,1,2,1,17,0,NaN,NaN,NaN,NaN,50,51,56,hit,457.636976242066,noevent,NaN,,Pilot_Chris_VP92,orange,cue_left_3t,cue_left,3t
171,6,1,5,[1 4],1,17,865,1802.08333333333,NaN,864,1.8,864,1.8,480,1,1,1,17,1,3,1,192,0.4,50,51,55,error,427.0094871521,error,408.143377304077,81,Pilot_Chris_VP92,orange,cue_left_3t,cue_left,3t
172,6,1,3,[1 2 4 5],1,17,913,1902.08333333333,NaN,912,1.9,720,1.5,480,1,1,2,26,0,NaN,NaN,NaN,NaN,30,31,35,hit,763.472652435303,noevent,NaN,,Pilot_Chris_VP92,orange,cue_left_6t,cue_left,6t
173,6,1,1,[1 3 4 6],1,17,817,1702.08333333333,NaN,816,1.7,864,1.8,480,1,2,1,17,0,NaN,NaN,NaN,NaN,10,11,16,hit,535.745620727539,noevent,NaN,,Pilot_Chris_VP92,orange,cue_left_3t3d,cue_left,3t_3d
174,6,1,5,[1 4],1,17,913,1902.08333333333,NaN,912,1.9,960,2,480,1,1,1,17,1,3,1,288,0.6,50,51,55,hit,489.017343521118,error,454.062128067016,81,Pilot_Chris_VP92,orange,cue_left_3t,cue_left,3t
175,6,1,6,[1 4],2,26,865,1802.08333333333,NaN,864,1.8,960,2,480,1,1,4,20,0,NaN,NaN,NaN,NaN,60,61,65,error,709.031534194946,noevent,NaN,,Pilot_Chris_VP92,orange,cue_right_3t,cue_right,3t
176,6,1,4,[1 2 4 5],2,26,865,1802.08333333333,NaN,864,1.8,720,1.5,480,1,1,4,20,0,NaN,NaN,NaN,NaN,40,41,45,hit,657.420110702515,noevent,NaN,,Pilot_Chris_VP92,orange,cue_right_6t,cue_right,6t
177,6,1,6,[1 4],2,26,913,1902.08333333333,NaN,912,1.9,912,1.9,480,1,2,4,20,1,1,1,576,1.2,60,61,66,hit,677.850198745728,error,567.935276031494,81,Pilot_Chris_VP92,orange,cue_right_3t,cue_right,3t
178,6,2,1,[1 3 4 6],1,17,769,1602.08333333333,NaN,768,1.6,336,0.7,480,1,2,1,17,0,NaN,NaN,NaN,NaN,10,11,16,hit,582.295608520508,noevent,NaN,,Pilot_Chris_VP92,orange,cue_left_3t3d,cue_left,3t_3d
179,6,1,5,[1 4],1,17,865,1802.08333333333,NaN,864,1.8,960,2,480,1,2,1,17,1,4,2,432,0.9,50,51,56,hit,479.993534088135,hit,388.120031356812,82,Pilot_Chris_VP92,orange,cue_left_3t,cue_left,3t
180,6,1,2,[1 3 4 6],2,26,721,1502.08333333333,NaN,720,1.5,960,2,480,1,1,4,20,1,2,2,192,0.4,20,21,25,hit,631.460189819336,hit,464.602327346802,82,Pilot_Chris_VP92,orange,cue_right_3t3d,cue_right,3t_3d
181,7,1,1,[1 3 4 6],1,17,961,2002.08333333333,NaN,960,2,768,1.6,480,1,2,1,17,0,NaN,NaN,NaN,NaN,10,11,16,error,551.913404464722,noevent,NaN,,Pilot_Chris_VP92,orange,cue_left_3t3d,cue_left,3t_3d
182,7,1,5,[1 4],1,17,913,1902.08333333333,NaN,912,1.9,960,2,480,1,2,1,17,0,NaN,NaN,NaN,NaN,50,51,56,hit,416.398859024048,noevent,NaN,,Pilot_Chris_VP92,orange,cue_left_3t,cue_left,3t
183,7,1,1,[1 3 4 6],1,17,769,1602.08333333333,NaN,768,1.6,720,1.5,480,1,2,1,17,0,NaN,NaN,NaN,NaN,10,11,16,hit,558.688545227051,noevent,NaN,,Pilot_Chris_VP92,orange,cue_left_3t3d,cue_left,3t_3d
184,7,2,4,[1 2 4 5],2,26,913,1902.08333333333,NaN,912,1.9,480,1,480,1,1,5,23,0,NaN,NaN,NaN,NaN,40,41,45,hit,452.158308029175,noevent,NaN,,Pilot_Chris_VP92,orange,cue_right_6t,cue_right,6t
185,7,1,4,[1 2 4 5],2,26,913,1902.08333333333,NaN,912,1.9,864,1.8,480,1,2,5,23,0,NaN,NaN,NaN,NaN,40,41,46,hit,466.271209716797,noevent,NaN,,Pilot_Chris_VP92,orange,cue_right_6t,cue_right,6t
186,7,2,2,[1 3 4 6],2,26,817,1702.08333333333,NaN,816,1.7,672,1.4,480,1,2,4,20,0,NaN,NaN,NaN,NaN,20,21,26,hit,443.644666671753,noevent,NaN,,Pilot_Chris_VP92,orange,cue_right_3t3d,cue_right,3t_3d
187,7,1,4,[1 2 4 5],2,26,865,1802.08333333333,NaN,864,1.8,864,1.8,480,1,2,4,20,1,3,1,192,0.4,40,41,46,hit,423.342370986938,error,517.446374893188,81,Pilot_Chris_VP92,orange,cue_right_6t,cue_right,6t
188,7,1,3,[1 2 4 5],1,17,961,2002.08333333333,NaN,960,2,720,1.5,480,1,1,2,26,0,NaN,NaN,NaN,NaN,30,31,35,hit,699.3567943573,noevent,NaN,,Pilot_Chris_VP92,orange,cue_left_6t,cue_left,6t
189,7,1,6,[1 4],2,26,913,1902.08333333333,NaN,912,1.9,912,1.9,480,1,1,4,20,0,NaN,NaN,NaN,NaN,60,61,65,error,469.417524337769,noevent,NaN,,Pilot_Chris_VP92,orange,cue_right_3t,cue_right,3t
190,7,1,6,[1 4],2,26,865,1802.08333333333,NaN,864,1.8,912,1.9,480,1,1,4,20,0,NaN,NaN,NaN,NaN,60,61,65,error,596.942949295044,noevent,NaN,,Pilot_Chris_VP92,orange,cue_right_3t,cue_right,3t
191,7,1,6,[1 4],2,26,817,1702.08333333333,NaN,816,1.7,816,1.7,480,1,2,4,20,1,3,1,144,0.3,60,61,66,hit,434.10906791687,error,446.193170547485,81,Pilot_Chris_VP92,orange,cue_right_3t,cue_right,3t
192,7,1,4,[1 2 4 5],2,26,817,1702.08333333333,NaN,816,1.7,864,1.8,480,1,2,5,23,0,NaN,NaN,NaN,NaN,40,41,46,hit,433.19296836853,noevent,NaN,,Pilot_Chris_VP92,orange,cue_right_6t,cue_right,6t
193,7,1,6,[1 4],2,26,913,1902.08333333333,NaN,912,1.9,768,1.6,480,1,1,4,20,0,NaN,NaN,NaN,NaN,60,61,65,error,476.524591445923,noevent,NaN,,Pilot_Chris_VP92,orange,cue_right_3t,cue_right,3t
194,7,2,1,[1 3 4 6],1,17,817,1702.08333333333,NaN,816,1.7,528,1.1,480,1,2,1,17,0,NaN,NaN,NaN,NaN,10,11,16,error,664.46704864502,noevent,NaN,,Pilot_Chris_VP92,orange,cue_left_3t3d,cue_left,3t_3d
195,7,2,2,[1 3 4 6],2,26,961,2002.08333333333,NaN,960,2,384,0.8,480,1,2,4,20,1,3,1,576,1.2,20,21,26,hit,513.382625579834,error,446.377801895141,81,Pilot_Chris_VP92,orange,cue_right_3t3d,cue_right,3t_3d
196,7,1,1,[1 3 4 6],1,17,817,1702.08333333333,NaN,816,1.7,960,2,480,1,1,1,17,0,NaN,NaN,NaN,NaN,10,11,15,error,543.857622146606,noevent,NaN,,Pilot_Chris_VP92,orange,cue_left_3t3d,cue_left,3t_3d
197,7,1,1,[1 3 4 6],1,17,769,1602.08333333333,NaN,768,1.6,960,2,480,1,2,1,17,1,1,1,288,0.6,10,11,16,hit,545.59268951416,error,592.692041397095,81,Pilot_Chris_VP92,orange,cue_left_3t3d,cue_left,3t_3d
198,7,1,6,[1 4],2,26,721,1502.08333333333,NaN,720,1.5,960,2,480,1,2,4,20,0,NaN,NaN,NaN,NaN,60,61,66,hit,359.297037124634,noevent,NaN,,Pilot_Chris_VP92,orange,cue_right_3t,cue_right,3t
199,7,2,1,[1 3 4 6],1,17,913,1902.08333333333,NaN,912,1.9,672,1.4,480,1,1,1,17,1,1,1,624,1.3,10,11,15,error,588.802766799927,error,470.850896835327,81,Pilot_Chris_VP92,orange,cue_left_3t3d,cue_left,3t_3d
200,7,1,4,[1 2 4 5],2,26,913,1902.08333333333,NaN,912,1.9,720,1.5,480,1,1,5,23,1,4,2,480,1,40,41,45,hit,567.939615249634,hit,439.129829406738,82,Pilot_Chris_VP92,orange,cue_right_6t,cue_right,6t
201,7,2,5,[1 4],1,17,817,1702.08333333333,NaN,816,1.7,336,0.7,480,1,1,1,17,0,NaN,NaN,NaN,NaN,50,51,55,hit,382.751798629761,noevent,NaN,,Pilot_Chris_VP92,orange,cue_left_3t,cue_left,3t
202,7,1,2,[1 3 4 6],2,26,961,2002.08333333333,NaN,960,2,720,1.5,480,1,1,4,20,0,NaN,NaN,NaN,NaN,20,21,25,hit,569.355726242065,noevent,NaN,,Pilot_Chris_VP92,orange,cue_right_3t3d,cue_right,3t_3d
203,7,1,3,[1 2 4 5],1,17,769,1602.08333333333,NaN,768,1.6,864,1.8,480,1,2,2,26,0,NaN,NaN,NaN,NaN,30,31,36,hit,454.340791702271,noevent,NaN,,Pilot_Chris_VP92,orange,cue_left_6t,cue_left,6t
204,7,1,6,[1 4],2,26,817,1702.08333333333,NaN,816,1.7,864,1.8,480,1,2,4,20,0,NaN,NaN,NaN,NaN,60,61,66,hit,352.831602096558,noevent,NaN,,Pilot_Chris_VP92,orange,cue_right_3t,cue_right,3t
205,7,1,4,[1 2 4 5],2,26,817,1702.08333333333,NaN,816,1.7,768,1.6,480,1,1,4,20,0,NaN,NaN,NaN,NaN,40,41,45,error,562.360000610352,noevent,NaN,,Pilot_Chris_VP92,orange,cue_right_6t,cue_right,6t
206,7,1,6,[1 4],2,26,721,1502.08333333333,NaN,720,1.5,960,2,480,1,1,4,20,0,NaN,NaN,NaN,NaN,60,61,65,hit,716.571092605591,noevent,NaN,,Pilot_Chris_VP92,orange,cue_right_3t,cue_right,3t
207,7,1,6,[1 4],2,26,865,1802.08333333333,NaN,864,1.8,864,1.8,480,1,2,4,20,0,NaN,NaN,NaN,NaN,60,61,66,hit,364.844703674316,noevent,NaN,,Pilot_Chris_VP92,orange,cue_right_3t,cue_right,3t
208,7,1,1,[1 3 4 6],1,17,865,1802.08333333333,NaN,864,1.8,960,2,480,1,1,1,17,0,NaN,NaN,NaN,NaN,10,11,15,hit,470.878076553345,noevent,NaN,,Pilot_Chris_VP92,orange,cue_left_3t3d,cue_left,3t_3d
209,7,1,3,[1 2 4 5],1,17,721,1502.08333333333,NaN,720,1.5,864,1.8,480,1,1,2,26,0,NaN,NaN,NaN,NaN,30,31,35,error,444.676351547241,noevent,NaN,,Pilot_Chris_VP92,orange,cue_left_6t,cue_left,6t
210,7,1,2,[1 3 4 6],2,26,865,1802.08333333333,NaN,864,1.8,816,1.7,480,1,2,4,20,0,NaN,NaN,NaN,NaN,20,21,26,hit,591.793537139893,noevent,NaN,,Pilot_Chris_VP92,orange,cue_right_3t3d,cue_right,3t_3d
211,8,1,4,[1 2 4 5],2,26,721,1502.08333333333,NaN,720,1.5,912,1.9,480,1,1,5,23,0,NaN,NaN,NaN,NaN,40,41,45,error,600.075101852417,noevent,NaN,,Pilot_Chris_VP92,orange,cue_right_6t,cue_right,6t
212,8,1,5,[1 4],1,17,913,1902.08333333333,NaN,912,1.9,864,1.8,480,1,1,1,17,0,NaN,NaN,NaN,NaN,50,51,55,hit,425.58388710022,noevent,NaN,,Pilot_Chris_VP92,orange,cue_left_3t,cue_left,3t
213,8,2,5,[1 4],1,17,913,1902.08333333333,NaN,912,1.9,576,1.2,480,1,1,1,17,0,NaN,NaN,NaN,NaN,50,51,55,hit,429.436588287354,noevent,NaN,,Pilot_Chris_VP92,orange,cue_left_3t,cue_left,3t
214,8,1,1,[1 3 4 6],1,17,817,1702.08333333333,NaN,816,1.7,864,1.8,480,1,1,1,17,0,NaN,NaN,NaN,NaN,10,11,15,hit,457.74507522583,noevent,NaN,,Pilot_Chris_VP92,orange,cue_left_3t3d,cue_left,3t_3d
215,8,2,2,[1 3 4 6],2,26,721,1502.08333333333,NaN,720,1.5,528,1.1,480,1,2,4,20,0,NaN,NaN,NaN,NaN,20,21,26,hit,513.37161064148,noevent,NaN,,Pilot_Chris_VP92,orange,cue_right_3t3d,cue_right,3t_3d
216,8,1,5,[1 4],1,17,817,1702.08333333333,NaN,816,1.7,768,1.6,480,1,2,1,17,0,NaN,NaN,NaN,NaN,50,51,56,hit,457.553100585938,noevent,NaN,,Pilot_Chris_VP92,orange,cue_left_3t,cue_left,3t
217,8,1,3,[1 2 4 5],1,17,913,1902.08333333333,NaN,912,1.9,720,1.5,480,1,1,1,17,0,NaN,NaN,NaN,NaN,30,31,35,hit,672.06916809082,noevent,NaN,,Pilot_Chris_VP92,orange,cue_left_6t,cue_left,6t
218,8,1,5,[1 4],1,17,817,1702.08333333333,NaN,816,1.7,912,1.9,480,1,2,1,17,1,2,2,336,0.7,50,51,56,hit,440.092945098877,hit,774.266529083252,82,Pilot_Chris_VP92,orange,cue_left_3t,cue_left,3t
219,8,1,5,[1 4],1,17,817,1702.08333333333,NaN,816,1.7,864,1.8,480,1,2,1,17,0,NaN,NaN,NaN,NaN,50,51,56,hit,395.27153968811,noevent,NaN,,Pilot_Chris_VP92,orange,cue_left_3t,cue_left,3t
220,8,1,6,[1 4],2,26,961,2002.08333333333,NaN,960,2,912,1.9,480,1,2,4,20,0,NaN,NaN,NaN,NaN,60,61,66,hit,416.842794418335,noevent,NaN,,Pilot_Chris_VP92,orange,cue_right_3t,cue_right,3t
221,8,1,6,[1 4],2,26,817,1702.08333333333,NaN,816,1.7,864,1.8,480,1,1,4,20,0,NaN,NaN,NaN,NaN,60,61,65,hit,909.887790679932,noevent,NaN,,Pilot_Chris_VP92,orange,cue_right_3t,cue_right,3t
222,8,1,6,[1 4],2,26,721,1502.08333333333,NaN,720,1.5,816,1.7,480,1,1,4,20,1,1,1,384,0.8,60,61,65,hit,479.105758666992,error,587.124538421631,81,Pilot_Chris_VP92,orange,cue_right_3t,cue_right,3t
223,8,1,1,[1 3 4 6],1,17,961,2002.08333333333,NaN,960,2,864,1.8,480,1,2,1,17,0,NaN,NaN,NaN,NaN,10,11,16,hit,435.520839691162,noevent,NaN,,Pilot_Chris_VP92,orange,cue_left_3t3d,cue_left,3t_3d
224,8,1,6,[1 4],2,26,961,2002.08333333333,NaN,960,2,960,2,480,1,1,4,20,1,1,1,528,1.1,60,61,65,hit,447.740316390991,error,565.792465209961,81,Pilot_Chris_VP92,orange,cue_right_3t,cue_right,3t
225,8,1,2,[1 3 4 6],2,26,865,1802.08333333333,NaN,864,1.8,960,2,480,1,2,4,20,0,NaN,NaN,NaN,NaN,20,21,26,hit,446.740341186523,noevent,NaN,,Pilot_Chris_VP92,orange,cue_right_3t3d,cue_right,3t_3d
226,8,1,4,[1 2 4 5],2,26,769,1602.08333333333,NaN,768,1.6,768,1.6,480,1,1,5,23,0,NaN,NaN,NaN,NaN,40,41,45,error,610.530185699463,noevent,NaN,,Pilot_Chris_VP92,orange,cue_right_6t,cue_right,6t
227,8,1,2,[1 3 4 6],2,26,721,1502.08333333333,NaN,720,1.5,816,1.7,480,1,2,4,20,0,NaN,NaN,NaN,NaN,20,21,26,hit,638.559865951538,noevent,NaN,,Pilot_Chris_VP92,orange,cue_right_3t3d,cue_right,3t_3d
